sep=;
ACCELEROMETER X (m/s²);ACCELEROMETER Y (m/s²);ACCELEROMETER Z (m/s²);GRAVITY X (m/s²);GRAVITY Y (m/s²);GRAVITY Z (m/s²);LINEAR ACCELERATION X (m/s²);LINEAR ACCELERATION Y (m/s²);LINEAR ACCELERATION Z (m/s²);GYROSCOPE X (rad/s);GYROSCOPE Y (rad/s);GYROSCOPE Z (rad/s);LIGHT (lux);MAGNETIC FIELD X (μT);MAGNETIC FIELD Y (μT);MAGNETIC FIELD Z (μT);ORIENTATION Z (azimuth °);ORIENTATION X (pitch °);ORIENTATION Y (roll °);PROXIMITY (i);ATMOSPHERIC PRESSURE (hPa);SOUND LEVEL (dB);LOCATION Latitude : ;LOCATION Longitude : ;LOCATION Altitude ( m);LOCATION Altitude-google ( m);LOCATION Altitude-atmospheric pressure ( m);LOCATION Speed ( Kmh);LOCATION Accuracy ( m);LOCATION ORIENTATION (°);Satellites in range;Time since start in ms ;YYYY-MO-DD HH-MI-SS_SSS
0.938;-2.3904;10.8467;-0.6487;-0.7976;9.7526;1.5881;-1.8561;1.4194;-1.4907;1.9191;1.2051;39.015;18.04;13.69;-42.82;304.72;3.49;2.2;5.0;972.53;0.0;;;;NaN;;;;;0 / 0;6;2023-09-21 21:20:58:054
0.938;-2.3904;10.8467;-0.6487;-0.7976;9.7526;1.5881;-1.8561;1.4194;-1.3105;1.8947;0.8856;39.015;18.04;13.69;-42.82;304.72;3.49;2.2;5.0;972.53;0.0;;;;NaN;;;;;0 / 0;11;2023-09-21 21:20:58:059
0.938;-2.3904;10.8467;-0.6487;-0.7976;9.7526;1.5881;-1.8561;1.4194;-1.3105;1.8947;0.8856;39.015;18.04;13.69;-42.82;304.72;3.49;2.2;5.0;972.53;0.0;;;;NaN;;;;;0 / 0;16;2023-09-21 21:20:58:064
-0.2058;-1.8305;9.9135;-0.9179;-0.9664;9.7157;1.062;-0.9602;0.6279;-1.1944;1.9032;0.6852;39.015;18.94;15.08;-42.0;304.72;3.49;2.2;5.0;972.53;0.0;;;;NaN;;;;;0 / 0;20;2023-09-21 21:20:58:068
-0.2058;-1.8305;9.9135;-0.9179;-0.9664;9.7157;1.062;-0.9602;0.6279;-1.1944;1.9032;0.6852;39.015;18.94;15.08;-42.0;304.72;3.49;2.2;5.0;972.53;0.0;;;;NaN;;;;;0 / 0;26;2023-09-21 21:20:58:074
-1.4859;-1.9071;8.7482;-0.9179;-0.9664;9.7157;1.062;-0.9602;0.6279;-1.1119;1.7224;0.5301;39.015;18.94;15.08;-42.0;304.72;3.49;2.2;5.0;972.53;0.0;;;;NaN;;;;;0 / 0;31;2023-09-21 21:20:58:079
-1.4859;-1.9071;8.7482;-1.1663;-1.1172;9.6727;-0.2075;-0.7822;-0.6396;-1.1119;1.7224;0.5301;39.015;18.94;15.08;-42.0;304.72;3.49;2.2;5.0;972.53;0.0;;;;NaN;;;;;0 / 0;36;2023-09-21 21:20:58:084
-1.4859;-1.9071;8.7482;-1.1663;-1.1172;9.6727;-0.2075;-0.7822;-0.6396;-1.1077;1.3192;0.4934;39.015;20.4;16.26;-41.19;306.31;6.54;6.88;5.0;972.53;0.0;;;;NaN;;;;;0 / 0;41;2023-09-21 21:20:58:089
-2.9695;-2.4933;7.9131;-1.1663;-1.1172;9.6727;-0.2075;-0.7822;-0.6396;-1.1077;1.3192;0.4934;39.015;20.4;16.26;-41.19;306.31;6.54;6.88;5.0;972.53;0.0;;;;NaN;;;;;0 / 0;46;2023-09-21 21:20:58:094
-2.9695;-2.4933;7.9131;-1.1663;-1.1172;9.6727;-0.2075;-0.7822;-0.6396;-1.1077;1.3192;0.4934;39.015;20.4;16.26;-41.19;306.31;6.54;6.88;5.0;972.53;0.0;;;;NaN;;;;;0 / 0;51;2023-09-21 21:20:58:099
-4.3693;-3.283;7.48;-1.3359;-1.2674;9.6322;-1.7965;-1.3159;-1.6274;-1.1394;0.7945;0.5704;39.015;20.4;16.26;-41.19;306.31;6.54;6.88;5.0;972.53;0.0;;;;NaN;;;;;0 / 0;55;2023-09-21 21:20:58:103
-4.3693;-3.283;7.48;-1.3359;-1.2674;9.6322;-1.7965;-1.3159;-1.6274;-1.1394;0.7945;0.5704;39.015;21.71;16.89;-41.25;306.31;6.54;6.88;5.0;972.53;0.0;;;;NaN;;;;;0 / 0;61;2023-09-21 21:20:58:109
-4.3693;-3.283;7.48;-1.4165;-1.4259;9.5985;-3.076;-1.9446;-1.9163;-1.2616;0.161;0.896;39.015;21.71;16.89;-41.25;306.31;6.54;6.88;5.0;972.53;0.0;;;;NaN;;;;;0 / 0;65;2023-09-21 21:20:58:113
-4.8359;-3.7041;7.9011;-1.4165;-1.4259;9.5985;-3.076;-1.9446;-1.9163;-1.2616;0.161;0.896;39.015;21.71;16.89;-41.25;306.31;6.54;6.88;5.0;972.53;0.0;;;;NaN;;;;;0 / 0;71;2023-09-21 21:20:58:119
-4.8359;-3.7041;7.9011;-1.4165;-1.4259;9.5985;-3.076;-1.9446;-1.9163;-1.454;-0.1193;1.2546;39.015;21.71;16.89;-41.25;306.31;6.54;6.88;5.0;972.53;0.0;;;;NaN;;;;;0 / 0;75;2023-09-21 21:20:58:123
-4.8359;-3.7041;7.9011;-1.4485;-1.6022;9.5658;-3.2687;-2.1297;-1.3398;-1.454;-0.1193;1.2546;39.015;22.74;17.91;-40.99;302.49;9.4;8.61;5.0;972.53;0.0;;;;NaN;;;;;0 / 0;80;2023-09-21 21:20:58:128
-3.7854;-3.5031;8.5352;-1.4485;-1.6022;9.5658;-3.2687;-2.1297;-1.3398;-1.6385;-0.1798;1.483;39.015;22.74;17.91;-40.99;302.49;9.4;8.61;5.0;972.53;0.0;;;;NaN;;;;;0 / 0;87;2023-09-21 21:20:58:135
-3.7854;-3.5031;8.5352;-1.4485;-1.6022;9.5658;-3.2687;-2.1297;-1.3398;-1.6385;-0.1798;1.483;39.015;22.74;17.91;-40.99;302.49;9.4;8.61;5.0;972.53;0.0;;;;NaN;;;;;0 / 0;90;2023-09-21 21:20:58:138
-3.7854;-3.5031;8.5352;-1.4731;-1.8055;9.5258;-2.0184;-1.6312;-0.5928;-1.6385;-0.1798;1.483;72.0225;22.74;17.91;-40.99;302.49;9.4;8.61;5.0;972.53;0.0;;;;NaN;;;;;0 / 0;96;2023-09-21 21:20:58:144
-2.3785;-2.9671;9.2961;-1.4731;-1.8055;9.5258;-2.0184;-1.6312;-0.5928;-1.8529;-0.0412;1.6119;72.0225;23.85;19.01;-40.8;302.49;9.4;8.61;5.0;972.53;0.0;;;;NaN;;;;;0 / 0;101;2023-09-21 21:20:58:149
-2.3785;-2.9671;9.2961;-1.4731;-1.8055;9.5258;-2.0184;-1.6312;-0.5928;-1.8529;-0.0412;1.6119;72.0225;23.85;19.01;-40.8;302.49;9.4;8.61;5.0;972.53;0.0;;;;NaN;;;;;0 / 0;105;2023-09-21 21:20:58:153
-0.9619;-2.3785;9.332;-1.5187;-2.0343;9.4723;-0.4277;-0.7616;0.052;-1.98;0.026;1.5667;72.0225;23.85;19.01;-40.8;302.49;9.4;8.61;5.0;972.53;0.0;;;;NaN;;;;;0 / 0;111;2023-09-21 21:20:58:159
-0.9619;-2.3785;9.332;-1.5187;-2.0343;9.4723;-0.4277;-0.7616;0.052;-1.98;0.026;1.5667;72.0225;23.85;19.01;-40.8;302.49;9.4;8.61;5.0;972.53;0.0;;;;NaN;;;;;0 / 0;115;2023-09-21 21:20:58:163
-0.9619;-2.3785;9.332;-1.568;-2.2831;9.4074;0.9152;-0.0258;0.0833;-2.0979;0.0633;1.3712;72.0225;24.26;19.86;-40.87;301.1;11.97;9.11;5.0;972.53;0.0;;;;NaN;;;;;0 / 0;121;2023-09-21 21:20:58:169
-0.8112;-2.2588;9.5139;-1.568;-2.2831;9.4074;0.9152;-0.0258;0.0833;-2.0979;0.0633;1.3712;72.0225;24.26;19.86;-40.87;301.1;11.97;9.11;5.0;972.53;0.0;;;;NaN;;;;;0 / 0;127;2023-09-21 21:20:58:175
-0.8112;-2.2588;9.5139;-1.568;-2.2831;9.4074;0.9152;-0.0258;0.0833;-2.1363;-0.0515;1.2259;72.0225;24.26;19.86;-40.87;301.1;11.97;9.11;5.0;972.53;0.0;;;;NaN;;;;;0 / 0;131;2023-09-21 21:20:58:179
-1.4405;-2.6201;10.4495;-1.6035;-2.5406;9.3351;0.3951;0.0657;0.8375;-2.1363;-0.0515;1.2259;72.0225;24.26;19.86;-40.87;301.1;11.97;9.11;5.0;972.53;0.0;;;;NaN;;;;;0 / 0;138;2023-09-21 21:20:58:186
-1.4405;-2.6201;10.4495;-1.6035;-2.5406;9.3351;0.3951;0.0657;0.8375;-2.1363;-0.0515;1.2259;72.0225;24.47;21.0;-40.63;301.1;11.97;9.11;5.0;972.53;0.0;;;;NaN;;;;;0 / 0;140;2023-09-21 21:20:58:188
-1.4405;-2.6201;10.4495;-1.6035;-2.5406;9.3351;0.3951;0.0657;0.8375;-2.0667;-0.1432;1.1519;72.0225;24.47;21.0;-40.63;301.1;11.97;9.11;5.0;972.53;0.0;;;;NaN;;;;;0 / 0;146;2023-09-21 21:20:58:194
-2.3139;-3.6514;12.5815;-1.6035;-2.5406;9.3351;0.3951;0.0657;0.8375;-2.0667;-0.1432;1.1519;72.0225;24.47;21.0;-40.63;301.1;11.97;9.11;5.0;972.53;0.0;;;;NaN;;;;;0 / 0;150;2023-09-21 21:20:58:198
-2.3139;-3.6514;12.5815;-1.6329;-2.7871;9.2594;-0.5389;-0.6316;3.0225;-1.9592;0.1885;1.1006;72.0225;24.43;21.41;-40.57;301.1;11.97;9.11;5.0;972.53;0.0;;;;NaN;;;;;0 / 0;155;2023-09-21 21:20:58:203
-2.3785;-4.343;13.5673;-1.6329;-2.7871;9.2594;-0.5389;-0.6316;3.0225;-1.9592;0.1885;1.1006;72.0225;24.43;21.41;-40.57;301.1;11.97;9.11;5.0;972.53;0.0;;;;NaN;;;;;0 / 0;161;2023-09-21 21:20:58:209
-2.3785;-4.343;13.5673;-1.7291;-3.015;9.1701;-0.6797;-1.3287;4.4961;-1.8749;0.723;1.0768;72.0225;24.43;21.41;-40.57;301.1;11.97;9.11;5.0;972.53;0.0;;;;NaN;;;;;0 / 0;165;2023-09-21 21:20:58:213
-2.3785;-4.343;13.5673;-1.7291;-3.015;9.1701;-0.6797;-1.3287;4.4961;-1.8749;0.723;1.0768;72.0225;24.53;22.13;-40.37;293.4;17.91;10.68;5.0;972.53;0.0;;;;NaN;;;;;0 / 0;170;2023-09-21 21:20:58:218
-2.7948;-3.8883;12.67;-1.7291;-3.015;9.1701;-0.6797;-1.3287;4.4961;-1.8205;1.3382;1.0554;72.0225;24.53;22.13;-40.37;293.4;17.91;10.68;5.0;972.53;0.0;;;;NaN;;;;;0 / 0;176;2023-09-21 21:20:58:224
-2.7948;-3.8883;12.67;-1.9394;-3.2255;9.0557;-0.8188;-0.8003;3.8873;-1.8205;1.3382;1.0554;72.0225;24.53;22.13;-40.37;293.4;17.91;10.68;5.0;972.53;0.0;;;;NaN;;;;;0 / 0;181;2023-09-21 21:20:58:229
-2.7948;-3.8883;12.67;-1.9394;-3.2255;9.0557;-0.8188;-0.8003;3.8873;-1.8266;1.7621;1.0121;72.0225;24.53;22.13;-40.37;293.4;17.91;10.68;5.0;972.53;0.0;;;;NaN;;;;;0 / 0;186;2023-09-21 21:20:58:234
-3.6371;-2.2899;11.129;-1.9394;-3.2255;9.0557;-0.8188;-0.8003;3.8873;-1.8266;1.7621;1.0121;72.0225;24.56;22.59;-40.16;293.4;17.91;10.68;5.0;972.53;0.0;;;;NaN;;;;;0 / 0;190;2023-09-21 21:20:58:238
-3.6371;-2.2899;11.129;-2.2248;-3.4288;8.9143;-1.3427;0.9662;2.4321;-1.8266;1.7621;1.0121;72.0225;24.56;22.59;-40.16;293.4;17.91;10.68;5.0;972.53;0.0;;;;NaN;;;;;0 / 0;196;2023-09-21 21:20:58:244
-3.6371;-2.2899;11.129;-2.2248;-3.4288;8.9143;-1.3427;0.9662;2.4321;-1.9012;1.9802;0.9094;72.0225;24.56;22.59;-40.16;293.4;17.91;10.68;5.0;972.53;0.0;;;;NaN;;;;;0 / 0;200;2023-09-21 21:20:58:248
-4.3765;-1.4405;10.5787;-2.2248;-3.4288;8.9143;-1.3427;0.9662;2.4321;-1.9012;1.9802;0.9094;72.0225;24.92;23.03;-39.86;293.4;17.91;10.68;5.0;972.53;0.0;;;;NaN;;;;;0 / 0;206;2023-09-21 21:20:58:254
-4.3765;-1.4405;10.5787;-2.5275;-3.6325;8.7514;-1.947;2.1205;1.9498;-1.9513;2.0016;0.877;72.0225;24.92;23.03;-39.86;293.4;17.91;10.68;5.0;972.53;0.0;;;;NaN;;;;;0 / 0;213;2023-09-21 21:20:58:261
-5.4437;-2.5292;11.0477;-2.5275;-3.6325;8.7514;-1.947;2.1205;1.9498;-1.9513;2.0016;0.877;72.0225;24.92;23.03;-39.86;293.4;17.91;10.68;5.0;972.54;0.0;;;;NaN;;;;;0 / 0;215;2023-09-21 21:20:58:263
-5.4437;-2.5292;11.0477;-2.8278;-3.8334;8.572;-2.5887;1.3121;2.5329;-1.9757;1.9503;0.9278;72.0225;25.76;23.87;-39.09;292.08;21.74;16.11;5.0;972.54;0.0;;;;NaN;;;;;0 / 0;222;2023-09-21 21:20:58:270
-5.4437;-2.5292;11.0477;-2.8278;-3.8334;8.572;-2.5887;1.3121;2.5329;-1.9757;1.9503;0.9278;72.0225;25.76;23.87;-39.09;292.08;21.74;16.11;5.0;972.54;0.0;;;;NaN;;;;;0 / 0;226;2023-09-21 21:20:58:274
-5.2546;-1.9095;11.3683;-2.8278;-3.8334;8.572;-2.5887;1.3121;2.5329;-1.9195;1.8501;0.9125;72.0225;25.76;23.87;-39.09;292.08;21.74;16.11;5.0;972.54;0.0;;;;NaN;;;;;0 / 0;230;2023-09-21 21:20:58:278
-5.2546;-1.9095;11.3683;-3.1083;-4.0176;8.3886;-2.2417;1.7708;2.8927;-1.9195;1.8501;0.9125;72.0225;25.76;23.87;-39.09;292.08;21.74;16.11;5.0;972.54;0.0;;;;NaN;;;;;0 / 0;236;2023-09-21 21:20:58:284
-5.2546;-1.9095;11.3683;-3.1083;-4.0176;8.3886;-2.2417;1.7708;2.8927;-1.9054;1.6583;1.0224;72.0225;27.24;24.47;-38.46;292.08;21.74;16.11;5.0;972.54;0.0;;;;NaN;;;;;0 / 0;241;2023-09-21 21:20:58:289
-5.1613;-4.2377;11.2415;-3.1083;-4.0176;8.3886;-2.2417;1.7708;2.8927;-1.9054;1.6583;1.0224;72.0225;27.24;24.47;-38.46;292.08;21.74;16.11;5.0;972.54;0.0;;;;NaN;;;;;0 / 0;245;2023-09-21 21:20:58:293
-5.1613;-4.2377;11.2415;-3.3596;-4.1849;8.2079;-1.8494;-0.214;3.1592;-1.9054;1.6583;1.0224;72.0225;27.24;24.47;-38.46;292.08;21.74;16.11;5.0;972.54;0.0;;;;NaN;;;;;0 / 0;251;2023-09-21 21:20:58:299
-5.1613;-4.2377;11.2415;-3.3596;-4.1849;8.2079;-1.8494;-0.214;3.1592;-1.7796;1.3082;1.1055;99.0225;27.24;24.47;-38.46;292.08;21.74;16.11;5.0;972.54;0.0;;;;NaN;;;;;0 / 0;255;2023-09-21 21:20:58:303
-4.9388;-5.3169;10.8921;-3.5024;-4.2818;8.0975;-1.5242;-0.8667;3.0914;-1.7796;1.3082;1.1055;99.0225;28.37;25.41;-37.93;282.79;25.89;23.39;5.0;972.54;0.0;;;;NaN;;;;;0 / 0;263;2023-09-21 21:20:58:311
-4.9388;-5.3169;10.8921;-3.5024;-4.2818;8.0975;-1.5242;-0.8667;3.0914;-1.6935;1.1739;1.1782;99.0225;28.37;25.41;-37.93;282.79;25.89;23.39;5.0;972.54;0.0;;;;NaN;;;;;0 / 0;266;2023-09-21 21:20:58:314
-4.7785;-5.482;10.1719;-3.5024;-4.2818;8.0975;-1.5242;-0.8667;3.0914;-1.6935;1.1739;1.1782;99.0225;28.37;25.41;-37.93;282.79;25.89;23.39;5.0;972.54;0.0;;;;NaN;;;;;0 / 0;272;2023-09-21 21:20:58:320
-4.7785;-5.482;10.1719;-3.7132;-4.4136;7.9311;-1.1122;-1.1303;2.3925;-1.7075;1.1794;1.2582;99.0225;28.37;25.41;-37.93;282.79;25.89;23.39;5.0;972.54;0.0;;;;NaN;;;;;0 / 0;275;2023-09-21 21:20:58:323
-4.7785;-5.482;10.1719;-3.7132;-4.4136;7.9311;-1.1122;-1.1303;2.3925;-1.7075;1.1794;1.2582;99.0225;29.42;26.25;-36.94;282.79;25.89;23.39;5.0;972.54;0.0;;;;NaN;;;;;0 / 0;281;2023-09-21 21:20:58:329
-5.0034;-4.9101;9.9637;-3.7132;-4.4136;7.9311;-1.1122;-1.1303;2.3925;-1.7643;1.1726;1.3425;99.0225;29.42;26.25;-36.94;282.79;25.89;23.39;5.0;972.54;0.0;;;;NaN;;;;;0 / 0;286;2023-09-21 21:20:58:334
-5.0034;-4.9101;9.9637;-3.9312;-4.5367;7.7547;-1.0932;-0.4535;2.2514;-1.7643;1.1726;1.3425;99.0225;29.42;26.25;-36.94;282.79;25.89;23.39;5.0;972.54;0.0;;;;NaN;;;;;0 / 0;291;2023-09-21 21:20:58:339
-5.0034;-4.9101;9.9637;-3.9312;-4.5367;7.7547;-1.0932;-0.4535;2.2514;-1.7643;1.1726;1.3425;99.0225;29.42;26.25;-36.94;282.79;25.89;23.39;5.0;972.55;0.0;;;;NaN;;;;;0 / 0;295;2023-09-21 21:20:58:343
-4.7282;-4.4315;10.7222;-3.9312;-4.5367;7.7547;-1.0932;-0.4535;2.2514;-1.8199;1.1952;1.3957;99.0225;30.38;26.96;-36.43;285.0;27.56;26.88;5.0;972.55;0.0;;;;NaN;;;;;0 / 0;301;2023-09-21 21:20:58:349
-4.7282;-4.4315;10.7222;-4.1534;-4.6512;7.5688;-0.6591;0.1265;3.1166;-1.8199;1.1952;1.3957;99.0225;30.38;26.96;-36.43;285.0;27.56;26.88;5.0;972.55;0.0;;;;NaN;;;;;0 / 0;306;2023-09-21 21:20:58:354
-4.0774;-3.8309;11.2726;-4.1534;-4.6512;7.5688;-0.6591;0.1265;3.1166;-1.7741;1.3229;1.3364;99.0225;30.38;26.96;-36.43;285.0;27.56;26.88;5.0;972.55;0.0;;;;NaN;;;;;0 / 0;311;2023-09-21 21:20:58:359
-4.0774;-3.8309;11.2726;-4.1534;-4.6512;7.5688;-0.6591;0.1265;3.1166;-1.7741;1.3229;1.3364;99.0225;30.38;26.96;-36.43;285.0;27.56;26.88;5.0;972.55;0.0;;;;NaN;;;;;0 / 0;316;2023-09-21 21:20:58:364
-4.0774;-3.8309;11.2726;-4.3837;-4.7511;7.3743;0.3768;0.9662;4.0232;-1.6599;1.4665;1.2014;99.0225;30.38;26.96;-36.43;285.0;27.56;26.88;5.0;972.55;0.0;;;;NaN;;;;;0 / 0;320;2023-09-21 21:20:58:368
-3.4528;-3.4146;11.208;-4.3837;-4.7511;7.3743;0.3768;0.9662;4.0232;-1.6599;1.4665;1.2014;99.0225;30.92;27.66;-35.61;285.0;27.56;26.88;5.0;972.55;0.0;;;;NaN;;;;;0 / 0;326;2023-09-21 21:20:58:374
-3.4528;-3.4146;11.208;-4.6083;-4.8333;7.1815;1.19;1.4105;3.9883;-1.4784;1.5239;1.0175;99.0225;30.92;27.66;-35.61;285.0;27.56;26.88;5.0;972.55;0.0;;;;NaN;;;;;0 / 0;330;2023-09-21 21:20:58:378
-3.4528;-3.4146;11.208;-4.6083;-4.8333;7.1815;1.19;1.4105;3.9883;-1.4784;1.5239;1.0175;99.0225;30.92;27.66;-35.61;285.0;27.56;26.88;5.0;972.55;0.0;;;;NaN;;;;;0 / 0;337;2023-09-21 21:20:58:385
-2.6967;-3.6706;10.751;-4.6083;-4.8333;7.1815;1.19;1.4105;3.9883;-1.3019;1.6393;0.8031;99.0225;31.63;27.58;-34.73;279.39;29.53;32.69;5.0;972.55;0.0;;;;NaN;;;;;0 / 0;341;2023-09-21 21:20:58:389
-2.6967;-3.6706;10.751;-4.8221;-4.9049;6.9899;2.1684;1.1802;3.7404;-1.3019;1.6393;0.8031;99.0225;31.63;27.58;-34.73;279.39;29.53;32.69;5.0;972.55;0.0;;;;NaN;;;;;0 / 0;347;2023-09-21 21:20:58:395
-2.3928;-4.0032;10.3968;-4.8221;-4.9049;6.9899;2.1684;1.1802;3.7404;-1.1932;1.8189;0.5942;99.0225;31.93;27.66;-34.31;279.39;29.53;32.69;5.0;972.55;0.0;;;;NaN;;;;;0 / 0;350;2023-09-21 21:20:58:398
-2.3928;-4.0032;10.3968;-4.8221;-4.9049;6.9899;2.1684;1.1802;3.7404;-1.1932;1.8189;0.5942;99.0225;31.93;27.66;-34.31;279.39;29.53;32.69;5.0;972.55;0.0;;;;NaN;;;;;0 / 0;356;2023-09-21 21:20:58:404
-2.3928;-4.0032;10.3968;-5.0345;-4.9777;6.7857;2.537;0.9287;3.5614;-1.1932;1.8189;0.5942;99.0225;31.93;27.66;-34.31;279.39;29.53;32.69;5.0;972.55;0.0;;;;NaN;;;;;0 / 0;362;2023-09-21 21:20:58:410
-2.7565;-3.9793;9.9374;-5.0345;-4.9777;6.7857;2.537;0.9287;3.5614;-1.0759;2.0633;0.3364;99.0225;31.93;27.66;-34.31;279.39;29.53;32.69;5.0;972.55;0.0;;;;NaN;;;;;0 / 0;366;2023-09-21 21:20:58:414
-2.7565;-3.9793;9.9374;-5.0345;-4.9777;6.7857;2.537;0.9287;3.5614;-1.0759;2.0633;0.3364;99.0225;33.06;27.68;-33.3;279.39;29.53;32.69;5.0;972.55;0.0;;;;NaN;;;;;0 / 0;370;2023-09-21 21:20:58:418
-2.7565;-3.9793;9.9374;-5.2483;-5.0553;6.5628;2.4709;1.1707;3.145;-0.9629;2.2905;0.0841;99.0225;33.06;27.68;-33.3;279.39;29.53;32.69;5.0;972.56;0.0;;;;NaN;;;;;0 / 0;376;2023-09-21 21:20:58:424
-2.6225;-4.0415;9.3894;-5.2483;-5.0553;6.5628;2.4709;1.1707;3.145;-0.9629;2.2905;0.0841;99.0225;33.06;27.68;-33.3;279.39;29.53;32.69;5.0;972.56;0.0;;;;NaN;;;;;0 / 0;380;2023-09-21 21:20:58:428
-2.6225;-4.0415;9.3894;-5.2483;-5.0553;6.5628;2.4709;1.1707;3.145;-0.9629;2.2905;0.0841;99.0225;33.06;27.68;-33.3;279.39;29.53;32.69;5.0;972.56;0.0;;;;NaN;;;;;0 / 0;386;2023-09-21 21:20:58:434
-2.5795;-4.1898;9.2578;-5.3872;-5.1096;6.4062;2.7637;0.9831;2.9421;-0.8719;2.3883;-0.0619;99.0225;34.03;27.68;-31.97;267.22;31.4;40.06;5.0;972.56;0.0;;;;NaN;;;;;0 / 0;391;2023-09-21 21:20:58:439
-2.5795;-4.1898;9.2578;-5.3872;-5.1096;6.4062;2.7637;0.9831;2.9421;-0.8719;2.3883;-0.0619;99.0225;34.03;27.68;-31.97;267.22;31.4;40.06;5.0;972.56;0.0;;;;NaN;;;;;0 / 0;396;2023-09-21 21:20:58:444
-2.5795;-4.1898;9.2578;-5.5775;-5.186;6.178;2.8487;1.0061;3.1617;-0.6739;2.2661;-0.1718;99.0225;34.03;27.68;-31.97;267.22;31.4;40.06;5.0;972.56;0.0;;;;NaN;;;;;0 / 0;401;2023-09-21 21:20:58:449
-3.0197;-4.4483;9.399;-5.5775;-5.186;6.178;2.8487;1.0061;3.1617;-0.6739;2.2661;-0.1718;99.0225;34.03;27.68;-31.97;267.22;31.4;40.06;5.0;972.56;0.0;;;;NaN;;;;;0 / 0;406;2023-09-21 21:20:58:454
-3.0197;-4.4483;9.399;-5.5775;-5.186;6.178;2.8487;1.0061;3.1617;-0.5353;2.2759;-0.1761;99.0225;35.14;27.92;-30.51;267.22;31.4;40.06;5.0;972.56;0.0;;;;NaN;;;;;0 / 0;412;2023-09-21 21:20:58:460
-3.0197;-4.4483;9.399;-5.7526;-5.2447;5.9642;2.4456;0.5959;3.4141;-0.5353;2.2759;-0.1761;100.98;35.14;27.92;-30.51;267.22;31.4;40.06;5.0;972.56;0.0;;;;NaN;;;;;0 / 0;415;2023-09-21 21:20:58:463
-4.5129;-4.9316;8.9013;-5.7526;-5.2447;5.9642;2.4456;0.5959;3.4141;-0.3416;2.4793;-0.1498;100.98;35.14;27.92;-30.51;267.22;31.4;40.06;5.0;972.56;0.0;;;;NaN;;;;;0 / 0;420;2023-09-21 21:20:58:468
-4.5129;-4.9316;8.9013;-5.7526;-5.2447;5.9642;2.4456;0.5959;3.4141;-0.3416;2.4793;-0.1498;100.98;35.14;27.92;-30.51;267.22;31.4;40.06;5.0;972.56;0.0;;;;NaN;;;;;0 / 0;426;2023-09-21 21:20:58:474
-5.2834;-4.855;8.1308;-5.9446;-5.2821;5.7387;1.0607;0.3475;2.9013;-0.3416;2.4793;-0.1498;100.98;35.14;27.92;-30.51;267.22;31.4;40.06;5.0;972.56;0.0;;;;NaN;;;;;0 / 0;431;2023-09-21 21:20:58:479
-5.2834;-4.855;8.1308;-5.9446;-5.2821;5.7387;1.0607;0.3475;2.9013;-0.1932;2.756;-0.1846;100.98;36.23;28.54;-29.23;264.96;32.59;46.01;5.0;972.56;0.0;;;;NaN;;;;;0 / 0;435;2023-09-21 21:20:58:483
-5.9916;-4.6516;6.6425;-6.1585;-5.3111;5.4805;0.3422;0.5907;1.6907;-0.1932;2.756;-0.1846;100.98;36.23;28.54;-29.23;264.96;32.59;46.01;5.0;972.56;0.0;;;;NaN;;;;;0 / 0;441;2023-09-21 21:20:58:489
-5.9916;-4.6516;6.6425;-6.1585;-5.3111;5.4805;0.3422;0.5907;1.6907;-0.1113;3.1427;-0.3215;100.98;36.23;28.54;-29.23;264.96;32.59;46.01;5.0;972.56;0.0;;;;NaN;;;;;0 / 0;447;2023-09-21 21:20:58:495
-5.9916;-4.6516;6.6425;-6.1585;-5.3111;5.4805;0.3422;0.5907;1.6907;-0.1113;3.1427;-0.3215;100.98;36.98;28.82;-27.84;264.96;32.59;46.01;5.0;972.56;0.0;;;;NaN;;;;;0 / 0;450;2023-09-21 21:20:58:498
-6.6018;-4.8215;4.6684;-6.378;-5.3547;5.1787;-0.0708;0.6016;-0.0458;-0.2262;3.3229;-0.4241;100.98;36.98;28.82;-27.84;264.96;32.59;46.01;5.0;972.56;0.0;;;;NaN;;;;;0 / 0;457;2023-09-21 21:20:58:505
-6.6018;-4.8215;4.6684;-6.378;-5.3547;5.1787;-0.0708;0.6016;-0.0458;-0.2262;3.3229;-0.4241;100.98;36.98;28.82;-27.84;264.96;32.59;46.01;5.0;972.56;0.0;;;;NaN;;;;;0 / 0;461;2023-09-21 21:20:58:509
-6.6018;-4.8215;4.6684;-6.378;-5.3547;5.1787;-0.0708;0.6016;-0.0458;-0.2262;3.3229;-0.4241;100.98;36.98;28.82;-27.84;264.96;32.59;46.01;5.0;972.56;0.0;;;;NaN;;;;;0 / 0;465;2023-09-21 21:20:58:513
-7.2144;-5.2307;3.4122;-6.5816;-5.4259;4.8387;-0.4767;0.4037;-1.1128;-0.4314;3.3162;-0.52;100.98;37.91;29.34;-26.16;230.12;33.59;53.68;5.0;972.56;0.0;;;;NaN;;;;;0 / 0;470;2023-09-21 21:20:58:518
-7.2144;-5.2307;3.4122;-6.5816;-5.4259;4.8387;-0.4767;0.4037;-1.1128;-0.4314;3.3162;-0.52;100.98;37.91;29.34;-26.16;230.12;33.59;53.68;5.0;972.56;0.0;;;;NaN;;;;;0 / 0;476;2023-09-21 21:20:58:524
-7.6546;-4.9029;3.3595;-6.5816;-5.4259;4.8387;-0.4767;0.4037;-1.1128;-0.6183;3.1421;-0.5169;100.98;37.91;29.34;-26.16;230.12;33.59;53.68;5.0;972.56;0.0;;;;NaN;;;;;0 / 0;481;2023-09-21 21:20:58:529
-7.6546;-4.9029;3.3595;-6.5816;-5.4259;4.8387;-0.4767;0.4037;-1.1128;-0.6183;3.1421;-0.5169;100.98;37.91;29.34;-26.16;230.12;33.59;53.68;5.0;972.56;0.0;;;;NaN;;;;;0 / 0;485;2023-09-21 21:20:58:533
-7.6546;-4.9029;3.3595;-6.7556;-5.515;4.4852;-0.9187;0.4623;-1.1393;-0.6183;3.1421;-0.5169;100.98;38.91;29.98;-24.34;230.12;33.59;53.68;5.0;972.56;0.0;;;;NaN;;;;;0 / 0;491;2023-09-21 21:20:58:539
-8.1188;-5.3336;3.4911;-6.7556;-5.515;4.4852;-0.9187;0.4623;-1.1393;-0.7026;2.905;-0.5005;100.98;38.91;29.98;-24.34;230.12;33.59;53.68;5.0;972.56;0.0;;;;NaN;;;;;0 / 0;496;2023-09-21 21:20:58:544
-8.1188;-5.3336;3.4911;-6.8985;-5.6014;4.1478;-1.3714;0.1039;-0.5749;-0.7026;2.905;-0.5005;100.98;38.91;29.98;-24.34;230.12;33.59;53.68;5.0;972.56;0.0;;;;NaN;;;;;0 / 0;500;2023-09-21 21:20:58:548
-8.3318;-4.7856;2.4072;-7.2173;-5.688;3.4246;-1.1769;0.89;-1.1631;-0.2323;1.2759;0.0701;100.98;41.91;30.96;-18.62;230.84;34.83;58.98;5.0;972.55;0.0;;;;NaN;;;;;0 / 0;541;2023-09-21 21:20:58:589
-8.3318;-4.7856;2.4072;-7.2173;-5.688;3.4246;-1.1769;0.89;-1.1631;-0.2323;1.2759;0.0701;100.98;41.91;30.96;-18.62;230.84;34.83;58.98;5.0;972.55;0.0;;;;NaN;;;;;0 / 0;541;2023-09-21 21:20:58:589
-8.3318;-4.7856;2.4072;-7.2173;-5.688;3.4246;-1.1769;0.89;-1.1631;-0.2323;1.2759;0.0701;100.98;41.91;30.96;-18.62;230.84;34.83;58.98;5.0;972.55;0.0;;;;NaN;;;;;0 / 0;541;2023-09-21 21:20:58:589
-8.3318;-4.7856;2.4072;-7.2173;-5.688;3.4246;-1.1769;0.89;-1.1631;-0.2323;1.2759;0.0701;100.98;41.91;30.96;-18.62;230.84;34.83;58.98;5.0;972.55;0.0;;;;NaN;;;;;0 / 0;541;2023-09-21 21:20:58:589
-8.3318;-4.7856;2.4072;-7.2173;-5.688;3.4246;-1.1769;0.89;-1.1631;-0.2323;1.2759;0.0701;100.98;41.91;30.96;-18.62;230.84;34.83;58.98;5.0;972.55;0.0;;;;NaN;;;;;0 / 0;542;2023-09-21 21:20:58:590
-8.3318;-4.7856;2.4072;-7.2173;-5.688;3.4246;-1.1769;0.89;-1.1631;-0.2323;1.2759;0.0701;100.98;41.91;30.96;-18.62;230.84;34.83;58.98;5.0;972.55;0.0;;;;NaN;;;;;0 / 0;542;2023-09-21 21:20:58:590
-8.3318;-4.7856;2.4072;-7.2173;-5.688;3.4246;-1.1769;0.89;-1.1631;-0.2323;1.2759;0.0701;100.98;41.91;30.96;-18.62;230.84;34.83;58.98;5.0;972.55;0.0;;;;NaN;;;;;0 / 0;542;2023-09-21 21:20:58:590
-8.3318;-4.7856;2.4072;-7.2173;-5.688;3.4246;-1.1769;0.89;-1.1631;-0.2323;1.2759;0.0701;100.98;41.91;30.96;-18.62;230.84;34.83;58.98;5.0;972.55;0.0;;;;NaN;;;;;0 / 0;542;2023-09-21 21:20:58:590
-8.5448;-4.8455;2.0506;-7.2173;-5.688;3.4246;-1.1769;0.89;-1.1631;-0.2323;1.2759;0.0701;100.98;41.91;30.96;-18.62;230.84;34.83;58.98;5.0;972.55;0.0;;;;NaN;;;;;0 / 0;545;2023-09-21 21:20:58:593
-8.5448;-4.8455;2.0506;-7.2173;-5.688;3.4246;-1.1769;0.89;-1.1631;-0.1578;0.8629;0.1159;100.98;41.91;30.96;-18.62;230.84;34.83;58.98;5.0;972.55;0.0;;;;NaN;;;;;0 / 0;551;2023-09-21 21:20:58:599
-8.5448;-4.8455;2.0506;-7.2714;-5.6784;3.3245;-1.3561;0.7883;-1.4438;-0.1578;0.8629;0.1159;100.98;41.91;30.96;-18.62;230.84;34.83;58.98;5.0;972.55;0.0;;;;NaN;;;;;0 / 0;555;2023-09-21 21:20:58:603
-8.6429;-5.0177;1.3687;-7.2714;-5.6784;3.3245;-1.3561;0.7883;-1.4438;-0.2304;0.6094;0.2136;100.98;42.24;30.99;-17.14;244.96;35.38;65.43;5.0;972.55;0.0;;;;NaN;;;;;0 / 0;561;2023-09-21 21:20:58:609
-8.6429;-5.0177;1.3687;-7.2714;-5.6784;3.3245;-1.3561;0.7883;-1.4438;-0.2304;0.6094;0.2136;100.98;42.24;30.99;-17.14;244.96;35.38;65.43;5.0;972.55;0.0;;;;NaN;;;;;0 / 0;566;2023-09-21 21:20:58:614
-8.5256;-5.0106;0.883;-7.3262;-5.6611;3.2325;-1.3002;0.5724;-2.1105;-0.4412;0.5001;0.3731;100.98;42.24;30.99;-17.14;244.96;35.38;65.43;5.0;972.55;0.0;;;;NaN;;;;;0 / 0;571;2023-09-21 21:20:58:619
-8.5256;-5.0106;0.883;-7.3262;-5.6611;3.2325;-1.3002;0.5724;-2.1105;-0.4412;0.5001;0.3731;73.98;42.24;30.99;-17.14;244.96;35.38;65.43;5.0;972.55;0.0;;;;NaN;;;;;0 / 0;575;2023-09-21 21:20:58:623
-8.5256;-5.0106;0.883;-7.3262;-5.6611;3.2325;-1.3002;0.5724;-2.1105;-0.633;0.2814;0.5001;73.98;42.3;31.01;-15.99;244.96;35.38;65.43;5.0;972.55;0.0;;;;NaN;;;;;0 / 0;581;2023-09-21 21:20:58:629
-8.5663;-4.4172;0.926;-7.3849;-5.6356;3.1422;-1.2222;0.9891;-2.3706;-0.633;0.2814;0.5001;73.98;42.3;31.01;-15.99;244.96;35.38;65.43;5.0;972.55;0.0;;;;NaN;;;;;0 / 0;587;2023-09-21 21:20:58:635
-8.5663;-4.4172;0.926;-7.3849;-5.6356;3.1422;-1.2222;0.9891;-2.3706;-0.7668;0.0303;0.582;73.98;42.3;31.01;-15.99;244.96;35.38;65.43;5.0;972.55;0.0;;;;NaN;;;;;0 / 0;590;2023-09-21 21:20:58:638
-7.882;-4.008;1.8401;-7.3849;-5.6356;3.1422;-1.2222;0.9891;-2.3706;-0.7668;0.0303;0.582;73.98;42.3;31.01;-15.99;244.96;35.38;65.43;5.0;972.55;0.0;;;;NaN;;;;;0 / 0;596;2023-09-21 21:20:58:644
-7.882;-4.008;1.8401;-7.4368;-5.605;3.0738;-0.5455;1.5767;-1.3335;-0.837;-0.0595;0.5655;73.98;42.34;30.56;-15.86;259.17;34.86;67.54;5.0;972.55;0.0;;;;NaN;;;;;0 / 0;600;2023-09-21 21:20:58:648
-7.882;-4.008;1.8401;-7.4368;-5.605;3.0738;-0.5455;1.5767;-1.3335;-0.837;-0.0595;0.5655;73.98;42.34;30.56;-15.86;259.17;34.86;67.54;5.0;972.55;0.0;;;;NaN;;;;;0 / 0;606;2023-09-21 21:20:58:654
-7.4034;-4.1492;3.0437;-7.4368;-5.605;3.0738;-0.5455;1.5767;-1.3335;-0.8419;-0.0448;0.4659;73.98;42.34;30.56;-15.86;259.17;34.86;67.54;5.0;972.55;0.0;;;;NaN;;;;;0 / 0;610;2023-09-21 21:20:58:658
-7.4034;-4.1492;3.0437;-7.478;-5.5841;3.0111;0.0634;1.4664;-0.0423;-0.8419;-0.0448;0.4659;73.98;42.34;30.56;-15.86;259.17;34.86;67.54;5.0;972.56;0.0;;;;NaN;;;;;0 / 0;616;2023-09-21 21:20:58:664
-7.4034;-4.1492;3.0437;-7.478;-5.5841;3.0111;0.0634;1.4664;-0.0423;-0.8419;-0.0448;0.4659;73.98;42.62;30.6;-15.64;259.17;34.86;67.54;5.0;972.56;0.0;;;;NaN;;;;;0 / 0;621;2023-09-21 21:20:58:669
-7.9298;-4.6277;3.1537;-7.478;-5.5841;3.0111;0.0634;1.4664;-0.0423;-0.8657;-0.0925;0.3572;73.98;42.62;30.6;-15.64;259.17;34.86;67.54;5.0;972.56;0.0;;;;NaN;;;;;0 / 0;625;2023-09-21 21:20:58:673
-7.9298;-4.6277;3.1537;-7.5061;-5.5779;2.9524;-0.398;0.9556;0.1555;-0.8657;-0.0925;0.3572;73.98;42.62;30.6;-15.64;259.17;34.86;67.54;5.0;972.56;0.0;;;;NaN;;;;;0 / 0;631;2023-09-21 21:20:58:679
-7.9298;-4.6277;3.1537;-7.5061;-5.5779;2.9524;-0.398;0.9556;0.1555;-0.8596;-0.1077;0.3236;73.98;42.56;30.6;-15.41;259.17;34.86;67.54;5.0;972.56;0.0;;;;NaN;;;;;0 / 0;635;2023-09-21 21:20:58:683
-8.5256;-4.7737;3.9027;-7.5061;-5.5779;2.9524;-0.398;0.9556;0.1555;-0.8596;-0.1077;0.3236;73.98;42.56;30.6;-15.41;259.17;34.86;67.54;5.0;972.56;0.0;;;;NaN;;;;;0 / 0;641;2023-09-21 21:20:58:689
-8.5256;-4.7737;3.9027;-7.5294;-5.5736;2.9005;-1.0662;0.7739;1.0634;-0.8041;-0.1316;0.3383;73.98;42.56;30.6;-15.41;259.17;34.86;67.54;5.0;972.56;0.0;;;;NaN;;;;;0 / 0;646;2023-09-21 21:20:58:694
-8.6716;-4.8598;4.5272;-7.5294;-5.5736;2.9005;-1.0662;0.7739;1.0634;-0.8041;-0.1316;0.3383;73.98;42.77;29.96;-14.96;230.9;34.64;68.93;5.0;972.56;0.0;;;;NaN;;;;;0 / 0;651;2023-09-21 21:20:58:699
-8.6716;-4.8598;4.5272;-7.5294;-5.5736;2.9005;-1.0662;0.7739;1.0634;-0.6605;-0.1236;0.3658;73.98;42.77;29.96;-14.96;230.9;34.64;68.93;5.0;972.56;0.0;;;;NaN;;;;;0 / 0;656;2023-09-21 21:20:58:704
-8.6716;-4.8598;4.5272;-7.5543;-5.5594;2.8628;-1.1296;0.6817;1.8513;-0.6605;-0.1236;0.3658;73.98;42.77;29.96;-14.96;230.9;34.64;68.93;5.0;972.56;0.0;;;;NaN;;;;;0 / 0;660;2023-09-21 21:20:58:708
-8.7386;-4.8096;5.0465;-7.5543;-5.5594;2.8628;-1.1296;0.6817;1.8513;-0.5218;-0.1303;0.3755;73.98;43.01;29.98;-14.79;230.9;34.64;68.93;5.0;972.56;0.0;;;;NaN;;;;;0 / 0;666;2023-09-21 21:20:58:714
-8.7386;-4.8096;5.0465;-7.5801;-5.534;2.8438;-1.2787;0.8299;2.5665;-0.5218;-0.1303;0.3755;73.98;43.01;29.98;-14.79;230.9;34.64;68.93;5.0;972.56;0.0;;;;NaN;;;;;0 / 0;671;2023-09-21 21:20:58:719
-8.7362;-4.6205;6.0156;-7.5801;-5.534;2.8438;-1.2787;0.8299;2.5665;-0.3331;-0.0864;0.3847;73.98;43.01;29.98;-14.79;230.9;34.64;68.93;5.0;972.56;0.0;;;;NaN;;;;;0 / 0;675;2023-09-21 21:20:58:723
-8.7362;-4.6205;6.0156;-7.5801;-5.534;2.8438;-1.2787;0.8299;2.5665;-0.3331;-0.0864;0.3847;73.98;43.18;29.85;-14.42;230.9;34.64;68.93;5.0;972.56;0.0;;;;NaN;;;;;0 / 0;681;2023-09-21 21:20:58:729
-8.7362;-4.6205;6.0156;-7.5801;-5.534;2.8438;-1.2787;0.8299;2.5665;-0.3331;-0.0864;0.3847;73.98;43.18;29.85;-14.42;230.9;34.64;68.93;5.0;972.56;0.0;;;;NaN;;;;;0 / 0;685;2023-09-21 21:20:58:733
-8.7194;-4.9484;6.1376;-7.6107;-5.4965;2.8348;-1.0876;0.7749;3.3229;-0.1901;0.0859;0.4085;73.98;43.18;29.85;-14.42;230.9;34.64;68.93;5.0;972.56;0.0;;;;NaN;;;;;0 / 0;691;2023-09-21 21:20:58:739
-8.7194;-4.9484;6.1376;-7.6107;-5.4965;2.8348;-1.0876;0.7749;3.3229;-0.1901;0.0859;0.4085;73.98;43.18;29.85;-14.42;230.9;34.64;68.93;5.0;972.56;0.0;;;;NaN;;;;;0 / 0;695;2023-09-21 21:20:58:743
-9.1573;-5.1135;5.8457;-7.6602;-5.4439;2.8028;-1.3709;0.3692;3.1929;-0.0582;0.4237;0.4995;73.98;43.05;29.98;-14.23;265.28;33.72;69.9;5.0;972.56;0.0;;;;NaN;;;;;0 / 0;700;2023-09-21 21:20:58:748
-9.1573;-5.1135;5.8457;-7.6602;-5.4439;2.8028;-1.3709;0.3692;3.1929;-0.0582;0.4237;0.4995;73.98;43.05;29.98;-14.23;265.28;33.72;69.9;5.0;972.56;0.0;;;;NaN;;;;;0 / 0;706;2023-09-21 21:20:58:754
-9.1573;-5.1135;5.8457;-7.6602;-5.4439;2.8028;-1.3709;0.3692;3.1929;0.0408;0.6888;0.618;73.98;43.05;29.98;-14.23;265.28;33.72;69.9;5.0;972.56;0.0;;;;NaN;;;;;0 / 0;710;2023-09-21 21:20:58:758
-9.0066;-5.068;5.3384;-7.7089;-5.3956;2.7623;-1.4418;0.2828;2.9365;0.0408;0.6888;0.618;73.98;43.18;29.72;-14.12;265.28;33.72;69.9;5.0;972.56;0.0;;;;NaN;;;;;0 / 0;716;2023-09-21 21:20:58:764
-9.0066;-5.068;5.3384;-7.7089;-5.3956;2.7623;-1.4418;0.2828;2.9365;0.1355;1.0059;0.753;73.98;43.18;29.72;-14.12;265.28;33.72;69.9;5.0;972.56;0.0;;;;NaN;;;;;0 / 0;721;2023-09-21 21:20:58:769
-8.3749;-4.2497;3.874;-7.7089;-5.3956;2.7623;-1.4418;0.2828;2.9365;0.1355;1.0059;0.753;73.98;43.18;29.72;-14.12;265.28;33.72;69.9;5.0;972.56;0.0;;;;NaN;;;;;0 / 0;726;2023-09-21 21:20:58:774
-8.3749;-4.2497;3.874;-7.8392;-5.2698;2.6356;-0.7054;0.8038;1.5817;0.1355;1.0059;0.753;73.98;43.44;29.25;-13.8;265.28;33.72;69.9;5.0;972.56;0.0;;;;NaN;;;;;0 / 0;731;2023-09-21 21:20:58:779
-8.3749;-4.2497;3.874;-7.8392;-5.2698;2.6356;-0.7054;0.8038;1.5817;0.1721;1.1659;0.8691;73.98;43.44;29.25;-13.8;265.28;33.72;69.9;5.0;972.56;0.0;;;;NaN;;;;;0 / 0;735;2023-09-21 21:20:58:783
-7.468;-3.8261;2.6967;-7.8392;-5.2698;2.6356;-0.7054;0.8038;1.5817;0.1721;1.1659;0.8691;66.015;43.44;29.25;-13.8;265.28;33.72;69.9;5.0;972.56;0.0;;;;NaN;;;;;0 / 0;741;2023-09-21 21:20:58:789
-7.468;-3.8261;2.6967;-7.9504;-5.1602;2.5167;0.3796;1.3083;0.2987;0.1129;1.227;0.9021;66.015;43.44;29.25;-13.8;265.28;33.72;69.9;5.0;972.56;0.0;;;;NaN;;;;;0 / 0;745;2023-09-21 21:20:58:793
-7.1593;-3.8022;1.8042;-7.9504;-5.1602;2.5167;0.3796;1.3083;0.2987;0.1129;1.227;0.9021;66.015;43.33;28.86;-13.5;23.14;31.75;72.43;5.0;972.56;0.0;;;;NaN;;;;;0 / 0;751;2023-09-21 21:20:58:799
-7.1593;-3.8022;1.8042;-7.9504;-5.1602;2.5167;0.3796;1.3083;0.2987;0.0108;1.2441;0.8813;66.015;43.33;28.86;-13.5;23.14;31.75;72.43;5.0;972.56;0.0;;;;NaN;;;;;0 / 0;755;2023-09-21 21:20:58:803
-7.1593;-3.8022;1.8042;-8.0604;-5.0542;2.3779;0.8968;1.2654;-0.6224;0.0108;1.2441;0.8813;66.015;43.33;28.86;-13.5;23.14;31.75;72.43;5.0;972.56;0.0;;;;NaN;;;;;0 / 0;761;2023-09-21 21:20:58:809
-7.3244;-3.8931;1.6056;-8.0604;-5.0542;2.3779;0.8968;1.2654;-0.6224;0.0108;1.2441;0.8813;66.015;43.33;28.86;-13.5;23.14;31.75;72.43;5.0;972.56;0.0;;;;NaN;;;;;0 / 0;765;2023-09-21 21:20:58:813
-7.3244;-3.8931;1.6056;-8.1626;-4.9594;2.2239;0.8019;1.0387;-0.6204;-0.104;1.2606;0.8202;66.015;43.61;27.86;-12.84;23.14;31.75;72.43;5.0;972.56;0.0;;;;NaN;;;;;0 / 0;772;2023-09-21 21:20:58:820
-7.3244;-3.8931;1.6056;-8.1626;-4.9594;2.2239;0.8019;1.0387;-0.6204;-0.104;1.2606;0.8202;66.015;43.61;27.86;-12.84;23.14;31.75;72.43;5.0;972.56;0.0;;;;NaN;;;;;0 / 0;775;2023-09-21 21:20:58:823
-7.6666;-4.1396;1.4261;-8.1626;-4.9594;2.2239;0.8019;1.0387;-0.6204;-0.1804;1.2288;0.761;66.015;43.61;27.86;-12.84;23.14;31.75;72.43;5.0;972.55;0.0;;;;NaN;;;;;0 / 0;782;2023-09-21 21:20:58:830
-7.6666;-4.1396;1.4261;-8.1626;-4.9594;2.2239;0.8019;1.0387;-0.6204;-0.1804;1.2288;0.761;66.015;43.61;27.86;-12.84;23.14;31.75;72.43;5.0;972.55;0.0;;;;NaN;;;;;0 / 0;785;2023-09-21 21:20:58:833
-7.9825;-4.2305;1.3926;-8.2524;-4.878;2.0673;0.4838;0.6886;-0.6809;-0.2451;1.1305;0.6968;66.015;43.54;26.44;-12.24;97.54;29.83;75.94;5.0;972.55;0.0;;;;NaN;;;;;0 / 0;791;2023-09-21 21:20:58:839
-7.9825;-4.2305;1.3926;-8.2524;-4.878;2.0673;0.4838;0.6886;-0.6809;-0.3111;1.0144;0.6101;66.015;43.54;26.44;-12.24;97.54;29.83;75.94;5.0;972.55;0.0;;;;NaN;;;;;0 / 0;797;2023-09-21 21:20:58:845
-7.9825;-4.2305;1.3926;-8.3275;-4.8097;1.9209;0.1487;0.5415;-0.4577;-0.3111;1.0144;0.6101;66.015;43.54;26.44;-12.24;97.54;29.83;75.94;5.0;972.55;0.0;;;;NaN;;;;;0 / 0;801;2023-09-21 21:20:58:849
-9.2243;-4.4267;1.7827;-8.3275;-4.8097;1.9209;0.1487;0.5415;-0.4577;-0.3111;1.0144;0.6101;66.015;43.54;26.44;-12.24;97.54;29.83;75.94;5.0;972.55;0.0;;;;NaN;;;;;0 / 0;805;2023-09-21 21:20:58:853
-9.2243;-4.4267;1.7827;-8.3275;-4.8097;1.9209;0.1487;0.5415;-0.4577;-0.3111;1.0144;0.6101;66.015;43.44;25.97;-11.62;97.54;29.83;75.94;5.0;972.55;0.0;;;;NaN;;;;;0 / 0;811;2023-09-21 21:20:58:859
-9.2243;-4.4267;1.7827;-8.3726;-4.7668;1.8295;-0.7295;0.3457;-0.108;-0.3569;0.8941;0.6168;66.015;43.44;25.97;-11.62;97.54;29.83;75.94;5.0;972.55;0.0;;;;NaN;;;;;0 / 0;815;2023-09-21 21:20:58:863
-10.6433;-4.4602;3.4385;-8.3726;-4.7668;1.8295;-0.7295;0.3457;-0.108;-0.3569;0.8941;0.6168;66.015;43.44;25.97;-11.62;97.54;29.83;75.94;5.0;972.55;0.0;;;;NaN;;;;;0 / 0;821;2023-09-21 21:20:58:869
-10.6433;-4.4602;3.4385;-8.4438;-4.684;1.7127;-2.1478;0.2179;1.5616;-0.2439;0.7872;0.8117;66.015;43.44;25.97;-11.62;97.54;29.83;75.94;5.0;972.55;0.0;;;;NaN;;;;;0 / 0;825;2023-09-21 21:20:58:873
-10.6433;-4.4602;3.4385;-8.4438;-4.684;1.7127;-2.1478;0.2179;1.5616;-0.2439;0.7872;0.8117;66.015;43.65;25.37;-10.67;80.97;28.53;78.53;5.0;972.55;0.0;;;;NaN;;;;;0 / 0;831;2023-09-21 21:20:58:879
-10.3322;-4.7569;5.0824;-8.4438;-4.684;1.7127;-2.1478;0.2179;1.5616;-0.0356;0.8623;0.94;66.015;43.65;25.37;-10.67;80.97;28.53;78.53;5.0;972.55;0.0;;;;NaN;;;;;0 / 0;836;2023-09-21 21:20:58:884
-10.3322;-4.7569;5.0824;-8.5256;-4.5694;1.614;-1.9185;-0.1545;3.4007;-0.0356;0.8623;0.94;66.015;43.65;25.37;-10.67;80.97;28.53;78.53;5.0;972.55;0.0;;;;NaN;;;;;0 / 0;840;2023-09-21 21:20:58:888
-9.3153;-4.9627;5.0656;-8.5256;-4.5694;1.614;-1.9185;-0.1545;3.4007;0.2448;1.0859;0.9894;66.015;43.65;25.37;-10.67;80.97;28.53;78.53;5.0;972.55;0.0;;;;NaN;;;;;0 / 0;846;2023-09-21 21:20:58:894
-9.3153;-4.9627;5.0656;-8.5256;-4.5694;1.614;-1.9185;-0.1545;3.4007;0.2448;1.0859;0.9894;66.015;43.73;24.51;-10.12;80.97;28.53;78.53;5.0;972.55;0.0;;;;NaN;;;;;0 / 0;850;2023-09-21 21:20:58:898
-9.3153;-4.9627;5.0656;-8.6125;-4.4414;1.5064;-0.6072;-0.5225;3.4942;0.2448;1.0859;0.9894;66.015;43.73;24.51;-10.12;80.97;28.53;78.53;5.0;972.56;0.0;;;;NaN;;;;;0 / 0;856;2023-09-21 21:20:58:904
-8.607;-4.8526;4.0917;-8.6125;-4.4414;1.5064;-0.6072;-0.5225;3.4942;0.4244;1.3144;0.9565;66.015;43.73;24.51;-10.12;80.97;28.53;78.53;5.0;972.56;0.0;;;;NaN;;;;;0 / 0;861;2023-09-21 21:20:58:909
-8.607;-4.8526;4.0917;-8.6125;-4.4414;1.5064;-0.6072;-0.5225;3.4942;0.4244;1.3144;0.9565;66.015;43.73;24.51;-10.12;80.97;28.53;78.53;5.0;972.56;0.0;;;;NaN;;;;;0 / 0;866;2023-09-21 21:20:58:914
-7.9657;-4.9819;3.2806;-8.6965;-4.3174;1.3787;0.2284;-0.5328;2.6081;0.4837;1.3742;0.8813;66.015;43.52;23.87;-9.39;48.06;26.12;80.99;5.0;972.56;0.0;;;;NaN;;;;;0 / 0;872;2023-09-21 21:20:58:920
-7.9657;-4.9819;3.2806;-8.6965;-4.3174;1.3787;0.2284;-0.5328;2.6081;0.4837;1.3742;0.8813;66.015;43.52;23.87;-9.39;48.06;26.12;80.99;5.0;972.56;0.0;;;;NaN;;;;;0 / 0;876;2023-09-21 21:20:58:924
-7.9657;-4.9819;3.2806;-8.7693;-4.2103;1.2425;0.7305;-0.9632;1.5828;0.4653;1.3803;0.7799;66.015;43.52;23.87;-9.39;48.06;26.12;80.99;5.0;972.56;0.0;;;;NaN;;;;;0 / 0;881;2023-09-21 21:20:58:929
-7.9657;-4.9819;3.2806;-8.7693;-4.2103;1.2425;0.7305;-0.9632;1.5828;0.4653;1.3803;0.7799;66.015;43.52;23.87;-9.39;48.06;26.12;80.99;5.0;972.56;0.0;;;;NaN;;;;;0 / 0;886;2023-09-21 21:20:58:934
-8.0375;-5.6112;1.9669;-8.7693;-4.2103;1.2425;0.7305;-0.9632;1.5828;0.3499;1.3828;0.7249;66.015;43.63;22.76;-8.44;48.06;26.12;80.99;5.0;972.56;0.0;;;;NaN;;;;;0 / 0;891;2023-09-21 21:20:58:939
-8.0375;-5.6112;1.9669;-8.7693;-4.2103;1.2425;0.7305;-0.9632;1.5828;0.3499;1.3828;0.7249;66.015;43.63;22.76;-8.44;48.06;26.12;80.99;5.0;972.56;0.0;;;;NaN;;;;;0 / 0;895;2023-09-21 21:20:58:943
-7.8317;-5.5346;1.517;-8.8334;-4.1166;1.0932;0.8546;-1.588;0.6542;0.2552;1.3504;0.6926;49.005;43.63;22.76;-8.44;48.06;26.12;80.99;5.0;972.56;0.0;;;;NaN;;;;;0 / 0;901;2023-09-21 21:20:58:949
-7.8317;-5.5346;1.517;-8.8334;-4.1166;1.0932;0.8546;-1.588;0.6542;0.2552;1.3504;0.6926;49.005;43.63;22.76;-8.44;48.06;26.12;80.99;5.0;972.56;0.0;;;;NaN;;;;;0 / 0;906;2023-09-21 21:20:58:954
-7.8317;-5.5346;1.517;-8.8896;-4.0321;0.9424;1.057;-1.4242;0.2895;0.1801;1.2129;0.681;49.005;43.39;21.77;-7.74;58.14;24.28;83.95;5.0;972.56;0.0;;;;NaN;;;;;0 / 0;910;2023-09-21 21:20:58:958
-8.1093;-5.391;1.2658;-8.8896;-4.0321;0.9424;1.057;-1.4242;0.2895;0.1801;1.2129;0.681;49.005;43.39;21.77;-7.74;58.14;24.28;83.95;5.0;972.56;0.0;;;;NaN;;;;;0 / 0;916;2023-09-21 21:20:58:964
-8.1093;-5.391;1.2658;-8.8896;-4.0321;0.9424;1.057;-1.4242;0.2895;0.1801;1.2129;0.681;49.005;43.39;21.77;-7.74;58.14;24.28;83.95;5.0;972.56;0.0;;;;NaN;;;;;0 / 0;920;2023-09-21 21:20:58:968
-8.1093;-5.391;1.2658;-8.9394;-3.9481;0.8187;0.8801;-1.4642;0.4983;0.1239;1.0089;0.6895;49.005;43.39;21.77;-7.74;58.14;24.28;83.95;5.0;972.56;0.0;;;;NaN;;;;;0 / 0;925;2023-09-21 21:20:58:973
-8.0566;-5.1661;1.5051;-8.9394;-3.9481;0.8187;0.8801;-1.4642;0.4983;0.1239;1.0089;0.6895;49.005;43.29;20.79;-6.02;58.14;24.28;83.95;5.0;972.56;0.0;;;;NaN;;;;;0 / 0;932;2023-09-21 21:20:58:980
-8.0566;-5.1661;1.5051;-8.9394;-3.9481;0.8187;0.8801;-1.4642;0.4983;0.1031;0.8006;0.6584;49.005;43.29;20.79;-6.02;58.14;24.28;83.95;5.0;972.56;0.0;;;;NaN;;;;;0 / 0;937;2023-09-21 21:20:58:985
-8.0566;-5.1661;1.5051;-8.983;-3.8673;0.7215;0.9862;-1.1363;0.9664;0.1031;0.8006;0.6584;49.005;43.29;20.79;-6.02;58.14;24.28;83.95;5.0;972.56;0.0;;;;NaN;;;;;0 / 0;941;2023-09-21 21:20:58:989
-8.2911;-4.6851;2.0243;-8.983;-3.8673;0.7215;0.9862;-1.1363;0.9664;0.1599;0.8666;0.6101;49.005;43.29;20.79;-6.02;58.14;24.28;83.95;5.0;972.56;0.0;;;;NaN;;;;;0 / 0;947;2023-09-21 21:20:58:995
-8.2911;-4.6851;2.0243;-8.983;-3.8673;0.7215;0.9862;-1.1363;0.9664;0.1599;0.8666;0.6101;49.005;43.44;20.29;-4.11;21.96;23.23;85.41;5.0;972.56;0.0;;;;NaN;;;;;0 / 0;951;2023-09-21 21:20:58:999
-8.4969;-4.6373;2.2014;-9.0228;-3.7912;0.6211;0.598;-0.8539;1.4629;0.2381;1.0248;0.5759;49.005;43.44;20.29;-4.11;21.96;23.23;85.41;5.0;972.56;0.0;;;;NaN;;;;;0 / 0;957;2023-09-21 21:20:59:005
-8.4969;-4.6373;2.2014;-9.0228;-3.7912;0.6211;0.598;-0.8539;1.4629;0.2381;1.0248;0.5759;49.005;43.44;20.29;-4.11;21.96;23.23;85.41;5.0;972.56;0.0;;;;NaN;;;;;0 / 0;961;2023-09-21 21:20:59:009
-8.4969;-4.6373;2.2014;-9.0228;-3.7912;0.6211;0.598;-0.8539;1.4629;0.2381;1.0248;0.5759;49.005;43.44;20.29;-4.11;21.96;23.23;85.41;5.0;972.56;0.0;;;;NaN;;;;;0 / 0;965;2023-09-21 21:20:59:013
-9.1071;-4.4937;2.0195;-9.0607;-3.7187;0.4955;0.2162;-0.9155;1.4462;0.3444;1.2313;0.5655;49.005;43.22;19.78;-2.34;21.96;23.23;85.41;5.0;972.56;0.0;;;;NaN;;;;;0 / 0;973;2023-09-21 21:20:59:021
-9.1071;-4.4937;2.0195;-9.0607;-3.7187;0.4955;0.2162;-0.9155;1.4462;0.4543;1.3473;0.6382;49.005;43.22;19.78;-2.34;21.96;23.23;85.41;5.0;972.56;0.0;;;;NaN;;;;;0 / 0;976;2023-09-21 21:20:59:024
-9.4516;-4.5535;1.1916;-9.1006;-3.6368;0.3513;-0.5266;-0.792;1.302;0.4543;1.3473;0.6382;49.005;43.22;19.78;-2.34;21.96;23.23;85.41;5.0;972.56;0.0;;;;NaN;;;;;0 / 0;981;2023-09-21 21:20:59:029
-9.4516;-4.5535;1.1916;-9.1006;-3.6368;0.3513;-0.5266;-0.792;1.302;0.4543;1.3473;0.6382;49.005;43.22;19.78;-2.34;21.96;23.23;85.41;5.0;972.56;0.0;;;;NaN;;;;;0 / 0;985;2023-09-21 21:20:59:033
-9.4516;-4.5535;1.1916;-9.1006;-3.6368;0.3513;-0.5266;-0.792;1.302;0.5032;1.4585;0.6987;49.005;43.31;19.58;-0.81;345.9;21.77;87.79;5.0;972.56;0.0;;;;NaN;;;;;0 / 0;991;2023-09-21 21:20:59:039
-9.1693;-5.4341;-1.6726;-9.1413;-3.5464;0.1736;0.0368;-1.7346;-1.0543;0.5032;1.4585;0.6987;49.005;43.31;19.58;-0.81;345.9;21.77;87.79;5.0;972.56;0.0;;;;NaN;;;;;0 / 0;995;2023-09-21 21:20:59:043
-9.1693;-5.4341;-1.6726;-9.1413;-3.5464;0.1736;0.0368;-1.7346;-1.0543;0.3493;1.6931;0.7463;49.005;43.31;19.58;-0.81;345.9;21.77;87.79;5.0;972.56;0.0;;;;NaN;;;;;0 / 0;1001;2023-09-21 21:20:59:049
-9.3248;-5.3288;-4.4674;-9.1413;-3.5464;0.1736;0.0368;-1.7346;-1.0543;0.3493;1.6931;0.7463;49.005;43.31;19.58;-0.81;345.9;21.77;87.79;5.0;972.56;0.0;;;;NaN;;;;;0 / 0;1005;2023-09-21 21:20:59:053
-9.3248;-5.3288;-4.4674;-9.1794;-3.4506;-0.0465;-0.1402;-1.8929;-4.0093;-0.082;1.5385;0.8056;49.005;43.18;19.65;-0.51;345.9;21.77;87.79;5.0;972.56;0.0;;;;NaN;;;;;0 / 0;1011;2023-09-21 21:20:59:059
-9.3248;-5.3288;-4.4674;-9.1794;-3.4506;-0.0465;-0.1402;-1.8929;-4.0093;-0.082;1.5385;0.8056;49.005;43.18;19.65;-0.51;345.9;21.77;87.79;5.0;972.55;0.0;;;;NaN;;;;;0 / 0;1016;2023-09-21 21:20:59:064
-8.9946;-4.5799;-6.0156;-9.1794;-3.4506;-0.0465;-0.1402;-1.8929;-4.0093;-0.5322;1.2465;0.8624;49.005;43.18;19.65;-0.51;345.9;21.77;87.79;5.0;972.55;0.0;;;;NaN;;;;;0 / 0;1020;2023-09-21 21:20:59:068
-8.9946;-4.5799;-6.0156;-9.2161;-3.3418;-0.2591;0.163;-1.3286;-5.7179;-0.5322;1.2465;0.8624;49.005;43.18;19.65;-0.51;345.9;21.77;87.79;5.0;972.55;0.0;;;;NaN;;;;;0 / 0;1026;2023-09-21 21:20:59:074
-8.9946;-4.5799;-6.0156;-9.2161;-3.3418;-0.2591;0.163;-1.3286;-5.7179;-0.5322;1.2465;0.8624;49.005;42.99;19.52;0.15;16.21;19.92;91.61;5.0;972.55;0.0;;;;NaN;;;;;0 / 0;1030;2023-09-21 21:20:59:078
-8.5663;-3.1274;-4.2808;-9.2161;-3.3418;-0.2591;0.163;-1.3286;-5.7179;-0.9891;0.8611;0.9717;49.005;42.99;19.52;0.15;16.21;19.92;91.61;5.0;972.55;0.0;;;;NaN;;;;;0 / 0;1036;2023-09-21 21:20:59:084
-8.5663;-3.1274;-4.2808;-9.257;-3.2082;-0.4305;0.6583;-0.0471;-4.0663;-0.9891;0.8611;0.9717;49.005;42.99;19.52;0.15;16.21;19.92;91.61;5.0;972.55;0.0;;;;NaN;;;;;0 / 0;1040;2023-09-21 21:20:59:088
-9.9613;-2.0818;-1.3208;-9.257;-3.2082;-0.4305;0.6583;-0.0471;-4.0663;-1.0893;0.3718;1.1214;49.005;42.92;19.16;0.9;16.21;19.92;91.61;5.0;972.55;0.0;;;;NaN;;;;;0 / 0;1052;2023-09-21 21:20:59:100
-9.9613;-2.0818;-1.3208;-9.257;-3.2082;-0.4305;0.6583;-0.0471;-4.0663;-1.0893;0.3718;1.1214;49.005;42.92;19.16;0.9;16.21;19.92;91.61;5.0;972.55;0.0;;;;NaN;;;;;0 / 0;1052;2023-09-21 21:20:59:100
-9.9613;-2.0818;-1.3208;-9.3103;-3.0365;-0.5187;-0.8337;0.9879;-0.591;-0.8761;0.0993;1.3731;29.97;42.92;19.16;0.9;16.21;19.92;91.61;5.0;972.55;0.0;;;;NaN;;;;;0 / 0;1058;2023-09-21 21:20:59:106
-9.2195;-1.8999;-0.8566;-9.3103;-3.0365;-0.5187;-0.8337;0.9879;-0.591;-0.8761;0.0993;1.3731;29.97;42.92;19.16;0.9;16.21;19.92;91.61;5.0;972.55;0.0;;;;NaN;;;;;0 / 0;1060;2023-09-21 21:20:59:108
-9.2195;-1.8999;-0.8566;-9.3103;-3.0365;-0.5187;-0.8337;0.9879;-0.591;-0.6361;-0.1963;1.4207;29.97;42.92;19.16;0.9;16.21;19.92;91.61;5.0;972.55;0.0;;;;NaN;;;;;0 / 0;1066;2023-09-21 21:20:59:114
-9.2195;-1.8999;-0.8566;-9.3723;-2.8363;-0.5342;0.4548;1.0197;-0.4343;-0.6361;-0.1963;1.4207;29.97;43.03;18.84;1.41;14.13;16.81;93.26;5.0;972.55;0.0;;;;NaN;;;;;0 / 0;1072;2023-09-21 21:20:59:120
-9.2195;-1.8999;-0.8566;-9.3723;-2.8363;-0.5342;0.4548;1.0197;-0.4343;-0.6361;-0.1963;1.4207;29.97;43.03;18.84;1.41;14.13;16.81;93.26;5.0;972.55;0.0;;;;NaN;;;;;0 / 0;1075;2023-09-21 21:20:59:123
-9.2195;-1.8999;-0.8566;-9.3723;-2.8363;-0.5342;0.4548;1.0197;-0.4343;-0.6361;-0.1963;1.4207;29.97;43.03;18.84;1.41;14.13;16.81;93.26;5.0;972.55;0.0;;;;NaN;;;;;0 / 0;1080;2023-09-21 21:20:59:128
-9.2195;-1.8999;-0.8566;-9.3723;-2.8363;-0.5342;0.4548;1.0197;-0.4343;-0.6361;-0.1963;1.4207;29.97;43.03;18.84;1.41;14.13;16.81;93.26;5.0;972.55;0.0;;;;NaN;;;;;0 / 0;1086;2023-09-21 21:20:59:134
-9.2195;-1.8999;-0.8566;-9.3723;-2.8363;-0.5342;0.4548;1.0197;-0.4343;-0.6361;-0.1963;1.4207;29.97;43.03;18.84;1.41;14.13;16.81;93.26;5.0;972.55;0.0;;;;NaN;;;;;0 / 0;1090;2023-09-21 21:20:59:138
-9.2195;-1.8999;-0.8566;-9.3723;-2.8363;-0.5342;0.4548;1.0197;-0.4343;-0.6361;-0.1963;1.4207;29.97;43.03;18.84;1.41;14.13;16.81;93.26;5.0;972.55;0.0;;;;NaN;;;;;0 / 0;1096;2023-09-21 21:20:59:144
-7.279;-1.0696;-1.7061;-9.3906;-2.7758;-0.5302;1.3757;1.2504;-0.7902;-0.6129;-0.3081;1.2619;29.97;43.13;18.34;1.43;14.13;16.81;93.26;5.0;972.55;0.0;;;;NaN;;;;;0 / 0;1100;2023-09-21 21:20:59:148
-7.279;-1.0696;-1.7061;-9.3906;-2.7758;-0.5302;1.3757;1.2504;-0.7902;-0.6129;-0.3081;1.2619;29.97;43.13;18.34;1.43;14.13;16.81;93.26;5.0;972.55;0.0;;;;NaN;;;;;0 / 0;1106;2023-09-21 21:20:59:154
-7.279;-1.0696;-1.7061;-9.3906;-2.7758;-0.5302;1.3757;1.2504;-0.7902;-0.6129;-0.3081;1.2619;29.97;43.13;18.34;1.43;14.13;16.81;93.26;5.0;972.55;0.0;;;;NaN;;;;;0 / 0;1110;2023-09-21 21:20:59:158
-7.279;-1.0696;-1.7061;-9.3906;-2.7758;-0.5302;1.3757;1.2504;-0.7902;-0.6129;-0.3081;1.2619;29.97;43.13;18.34;1.43;14.13;16.81;93.26;5.0;972.55;0.0;;;;NaN;;;;;0 / 0;1116;2023-09-21 21:20:59:164
-9.8895;-0.7753;-1.328;-9.4578;-2.4895;-0.7224;0.1766;1.8917;-1.2092;-1.2934;0.8812;0.5832;29.97;43.05;16.2;2.66;3.58;14.71;94.37;5.0;972.55;0.0;;;;NaN;;;;;0 / 0;1121;2023-09-21 21:20:59:169
-9.8895;-0.7753;-1.328;-9.4578;-2.4895;-0.7224;0.1766;1.8917;-1.2092;-1.2934;0.8812;0.5832;29.97;43.05;16.2;2.66;3.58;14.71;94.37;5.0;972.55;0.0;;;;NaN;;;;;0 / 0;1125;2023-09-21 21:20:59:173
-9.8895;-0.7753;-1.328;-9.4578;-2.4895;-0.7224;0.1766;1.8917;-1.2092;-1.2934;0.8812;0.5832;29.97;43.05;16.2;2.66;3.58;14.71;94.37;5.0;972.55;0.0;;;;NaN;;;;;0 / 0;1131;2023-09-21 21:20:59:179
-9.8895;-0.7753;-1.328;-9.4578;-2.4895;-0.7224;0.1766;1.8917;-1.2092;-1.2934;0.8812;0.5832;29.97;43.05;16.2;2.66;3.58;14.71;94.37;5.0;972.55;0.0;;;;NaN;;;;;0 / 0;1136;2023-09-21 21:20:59:184
-9.8895;-0.7753;-1.328;-9.4578;-2.4895;-0.7224;0.1766;1.8917;-1.2092;-1.2934;0.8812;0.5832;29.97;43.05;16.2;2.66;3.58;14.71;94.37;5.0;972.55;0.0;;;;NaN;;;;;0 / 0;1142;2023-09-21 21:20:59:190
-9.8895;-0.7753;-1.328;-9.4578;-2.4895;-0.7224;0.1766;1.8917;-1.2092;-1.2934;0.8812;0.5832;29.97;43.05;16.2;2.66;3.58;14.71;94.37;5.0;972.55;0.0;;;;NaN;;;;;0 / 0;1145;2023-09-21 21:20:59:193
-10.8036;-1.4859;0.7178;-9.473;-2.3487;-0.9566;-1.2621;1.1162;1.2001;-1.085;1.0083;0.692;29.97;43.28;15.66;2.87;3.58;14.71;94.37;5.0;972.55;0.0;;;;NaN;;;;;0 / 0;1152;2023-09-21 21:20:59:200
-10.8036;-1.4859;0.7178;-9.473;-2.3487;-0.9566;-1.2621;1.1162;1.2001;-0.4223;0.7762;0.8593;29.97;43.28;15.66;2.87;3.58;14.71;94.37;5.0;972.55;0.0;;;;NaN;;;;;0 / 0;1156;2023-09-21 21:20:59:204
-9.655;-3.5366;0.3948;-9.5021;-2.0667;-1.2689;-0.5379;-1.093;1.7272;-0.4223;0.7762;0.8593;29.97;42.9;13.41;4.16;25.54;12.17;97.61;5.0;972.55;0.0;;;;NaN;;;;;0 / 0;1161;2023-09-21 21:20:59:209
-9.655;-3.5366;0.3948;-9.5021;-2.0667;-1.2689;-0.5379;-1.093;1.7272;-0.3758;0.6754;0.8978;29.97;42.9;13.41;4.16;25.54;12.17;97.61;5.0;972.55;0.0;;;;NaN;;;;;0 / 0;1166;2023-09-21 21:20:59:214
-9.655;-3.5366;0.3948;-9.5021;-2.0667;-1.2689;-0.5379;-1.093;1.7272;-0.3758;0.6754;0.8978;29.97;42.9;13.41;4.16;25.54;12.17;97.61;5.0;972.55;0.0;;;;NaN;;;;;0 / 0;1170;2023-09-21 21:20:59:218
-9.0209;-3.1059;1.139;-9.5154;-1.9423;-1.3618;0.1853;-1.5703;1.996;-0.3758;0.6754;0.8978;29.97;42.9;13.41;4.16;25.54;12.17;97.61;5.0;972.55;0.0;;;;NaN;;;;;0 / 0;1176;2023-09-21 21:20:59:224
-9.0209;-3.1059;1.139;-9.5154;-1.9423;-1.3618;0.1853;-1.5703;1.996;-0.2805;0.5019;0.9387;29.97;42.62;12.69;4.31;25.54;12.17;97.61;5.0;972.55;0.0;;;;NaN;;;;;0 / 0;1181;2023-09-21 21:20:59:229
-7.657;-2.3019;2.2636;-9.5154;-1.9423;-1.3618;0.1853;-1.5703;1.996;-0.2805;0.5019;0.9387;29.97;42.62;12.69;4.31;25.54;12.17;97.61;5.0;972.55;0.0;;;;NaN;;;;;0 / 0;1186;2023-09-21 21:20:59:234
-7.657;-2.3019;2.2636;-9.5317;-1.8165;-1.4204;1.4358;-0.7014;3.3509;-0.0961;0.3944;0.8887;29.97;42.62;12.69;4.31;25.54;12.17;97.61;5.0;972.55;0.0;;;;NaN;;;;;0 / 0;1192;2023-09-21 21:20:59:240
-7.657;-2.3019;2.2636;-9.5317;-1.8165;-1.4204;1.4358;-0.7014;3.3509;-0.0961;0.3944;0.8887;29.97;42.62;12.69;4.31;25.54;12.17;97.61;5.0;972.55;0.0;;;;NaN;;;;;0 / 0;1196;2023-09-21 21:20:59:244
-6.5755;-1.6606;3.1298;-9.5467;-1.717;-1.443;2.8721;-0.0012;4.5192;0.2613;0.2527;0.7121;29.97;42.24;11.7;4.97;17.45;10.67;98.48;5.0;972.55;0.0;;;;NaN;;;;;0 / 0;1201;2023-09-21 21:20:59:249
-6.5755;-1.6606;3.1298;-9.5467;-1.717;-1.443;2.8721;-0.0012;4.5192;0.2613;0.2527;0.7121;29.97;42.24;11.7;4.97;17.45;10.67;98.48;5.0;972.55;0.0;;;;NaN;;;;;0 / 0;1205;2023-09-21 21:20:59:253
-5.8146;-1.5147;3.1298;-9.5467;-1.717;-1.443;2.8721;-0.0012;4.5192;0.5826;0.1989;0.4898;29.97;42.24;11.7;4.97;17.45;10.67;98.48;5.0;972.55;0.0;;;;NaN;;;;;0 / 0;1211;2023-09-21 21:20:59:259
-5.8146;-1.5147;3.1298;-9.5557;-1.6694;-1.4395;3.7418;0.1353;4.5039;0.5826;0.1989;0.4898;27.0;42.24;11.7;4.97;17.45;10.67;98.48;5.0;972.55;0.0;;;;NaN;;;;;0 / 0;1215;2023-09-21 21:20:59:263
-5.8146;-1.5147;3.1298;-9.5557;-1.6694;-1.4395;3.7418;0.1353;4.5039;0.9345;0.1598;0.1794;27.0;41.81;10.31;5.06;17.45;10.67;98.48;5.0;972.55;0.0;;;;NaN;;;;;0 / 0;1222;2023-09-21 21:20:59:270
-6.0323;-1.986;2.4383;-9.5557;-1.6694;-1.4395;3.7418;0.1353;4.5039;0.9345;0.1598;0.1794;27.0;41.81;10.31;5.06;17.45;10.67;98.48;5.0;972.55;0.0;;;;NaN;;;;;0 / 0;1226;2023-09-21 21:20:59:274
-6.0323;-1.986;2.4383;-9.5565;-1.6786;-1.4235;3.4286;-0.3822;3.7798;1.1391;0.1445;-0.0057;27.0;41.61;10.05;5.08;17.45;10.67;98.48;5.0;972.55;0.0;;;;NaN;;;;;0 / 0;1231;2023-09-21 21:20:59:279
-6.2859;-2.5914;1.3065;-9.5565;-1.6786;-1.4235;3.4286;-0.3822;3.7798;1.1391;0.1445;-0.0057;27.0;41.61;10.05;5.08;17.45;10.67;98.48;5.0;972.55;0.0;;;;NaN;;;;;0 / 0;1235;2023-09-21 21:20:59:283
-6.2859;-2.5914;1.3065;-9.5565;-1.6786;-1.4235;3.4286;-0.3822;3.7798;1.1391;0.1445;-0.0057;27.0;41.61;10.05;5.08;17.45;10.67;98.48;5.0;972.55;0.0;;;;NaN;;;;;0 / 0;1241;2023-09-21 21:20:59:289
-6.2859;-2.5914;1.3065;-9.5509;-1.728;-1.4019;3.225;-0.9897;2.2861;1.2808;0.1195;-0.192;27.0;41.61;10.05;5.08;17.45;10.67;98.48;5.0;972.55;0.0;;;;NaN;;;;;0 / 0;1246;2023-09-21 21:20:59:294
-6.0993;-2.6991;-0.3326;-9.5509;-1.728;-1.4019;3.225;-0.9897;2.2861;1.3077;0.0541;-0.36;27.0;41.27;9.56;5.66;0.4;10.15;98.35;5.0;972.55;0.0;;;;NaN;;;;;0 / 0;1252;2023-09-21 21:20:59:300
-6.0993;-2.6991;-0.3326;-9.5509;-1.728;-1.4019;3.225;-0.9897;2.2861;1.3077;0.0541;-0.36;27.0;41.27;9.56;5.66;0.4;10.15;98.35;5.0;972.55;0.0;;;;NaN;;;;;0 / 0;1255;2023-09-21 21:20:59:303
-5.9198;-2.1703;-2.8235;-9.5394;-1.8129;-1.3721;3.5964;-0.6528;-0.089;1.3077;0.0541;-0.36;27.0;41.27;9.56;5.66;0.4;10.15;98.35;5.0;972.55;0.0;;;;NaN;;;;;0 / 0;1261;2023-09-21 21:20:59:309
-5.9198;-2.1703;-2.8235;-9.5394;-1.8129;-1.3721;3.5964;-0.6528;-0.089;1.2259;-0.1664;-0.6489;27.0;41.27;9.56;5.66;0.4;10.15;98.35;5.0;972.55;0.0;;;;NaN;;;;;0 / 0;1266;2023-09-21 21:20:59:314
-5.9198;-2.1703;-2.8235;-9.5394;-1.8129;-1.3721;3.5964;-0.6528;-0.089;1.2259;-0.1664;-0.6489;27.0;41.42;9.6;6.08;0.4;10.15;98.35;5.0;972.55;0.0;;;;NaN;;;;;0 / 0;1270;2023-09-21 21:20:59:318
-8.0925;-2.6489;-6.1065;-9.5227;-1.9373;-1.317;2.4123;-0.3469;-3.4686;1.0194;-0.4297;-0.8578;27.0;41.42;9.6;6.08;0.4;10.15;98.35;5.0;972.55;0.0;;;;NaN;;;;;0 / 0;1276;2023-09-21 21:20:59:324
-8.0925;-2.6489;-6.1065;-9.5227;-1.9373;-1.317;2.4123;-0.3469;-3.4686;1.0194;-0.4297;-0.8578;27.0;41.42;9.6;6.08;0.4;10.15;98.35;5.0;972.55;0.0;;;;NaN;;;;;0 / 0;1281;2023-09-21 21:20:59:329
-10.0929;-3.5821;-8.4562;-9.5227;-1.9373;-1.317;2.4123;-0.3469;-3.4686;0.7115;-0.5903;-0.8688;27.0;41.42;9.6;6.08;0.4;10.15;98.35;5.0;972.55;0.0;;;;NaN;;;;;0 / 0;1285;2023-09-21 21:20:59:333
-10.0929;-3.5821;-8.4562;-9.504;-2.0745;-1.2415;-0.1108;-1.3054;-6.5129;0.7115;-0.5903;-0.8688;27.0;41.51;9.58;6.02;327.5;12.21;97.44;5.0;972.55;0.0;;;;NaN;;;;;0 / 0;1290;2023-09-21 21:20:59:338
-10.0929;-3.5821;-8.4562;-9.504;-2.0745;-1.2415;-0.1108;-1.3054;-6.5129;0.7115;-0.5903;-0.8688;27.0;41.51;9.58;6.02;327.5;12.21;97.44;5.0;972.55;0.0;;;;NaN;;;;;0 / 0;1295;2023-09-21 21:20:59:343
-12.1699;-3.7711;-10.4518;-9.504;-2.0745;-1.2415;-0.1108;-1.3054;-6.5129;0.1141;-0.7504;-0.6739;27.0;41.51;9.58;6.02;327.5;12.21;97.44;5.0;972.55;0.0;;;;NaN;;;;;0 / 0;1301;2023-09-21 21:20:59:349
-12.1699;-3.7711;-10.4518;-9.4909;-2.1759;-1.1655;-2.5796;-1.6461;-9.1185;0.1141;-0.7504;-0.6739;27.0;41.51;9.58;6.02;327.5;12.21;97.44;5.0;972.55;0.0;;;;NaN;;;;;0 / 0;1306;2023-09-21 21:20:59:354
-12.7825;-3.1035;-10.8443;-9.4909;-2.1759;-1.1655;-2.5796;-1.6461;-9.1185;-0.6269;-1.0527;-0.3636;27.0;40.97;5.55;8.55;327.5;12.21;97.44;5.0;972.55;0.0;;;;NaN;;;;;0 / 0;1310;2023-09-21 21:20:59:358
-12.7825;-3.1035;-10.8443;-9.4909;-2.1759;-1.1655;-2.5796;-1.6461;-9.1185;-0.6269;-1.0527;-0.3636;27.0;40.97;5.55;8.55;327.5;12.21;97.44;5.0;972.55;0.0;;;;NaN;;;;;0 / 0;1315;2023-09-21 21:20:59:363
-12.7825;-3.1035;-10.8443;-9.4934;-2.2106;-1.0769;-3.3338;-0.8231;-9.6546;-1.181;-1.2067;-0.1174;27.0;40.97;5.55;8.55;327.5;12.21;97.44;5.0;972.55;0.0;;;;NaN;;;;;0 / 0;1320;2023-09-21 21:20:59:368
-12.1603;-2.132;-8.8893;-9.4934;-2.2106;-1.0769;-3.3338;-0.8231;-9.6546;-1.181;-1.2067;-0.1174;27.0;40.97;5.55;8.55;327.5;12.21;97.44;5.0;972.55;0.0;;;;NaN;;;;;0 / 0;1326;2023-09-21 21:20:59:374
-12.1603;-2.132;-8.8893;-9.5081;-2.1892;-0.9864;-2.2594;0.3371;-7.147;-1.6153;-1.1761;0.0536;27.0;40.71;6.02;8.83;230.47;13.03;96.47;5.0;972.55;0.0;;;;NaN;;;;;0 / 0;1330;2023-09-21 21:20:59:378
-10.3968;-1.4381;-5.9581;-9.5081;-2.1892;-0.9864;-2.2594;0.3371;-7.147;-1.6153;-1.1761;0.0536;27.0;40.71;6.02;8.83;230.47;13.03;96.47;5.0;972.55;0.0;;;;NaN;;;;;0 / 0;1336;2023-09-21 21:20:59:384
-10.3968;-1.4381;-5.9581;-9.5081;-2.1892;-0.9864;-2.2594;0.3371;-7.147;-1.6153;-1.1761;0.0536;27.0;40.71;6.02;8.83;230.47;13.03;96.47;5.0;972.55;0.0;;;;NaN;;;;;0 / 0;1340;2023-09-21 21:20:59:388
-10.3968;-1.4381;-5.9581;-9.522;-2.1581;-0.9193;-0.685;0.6889;-4.6447;-1.7582;-0.9544;0.006;27.0;40.71;6.02;8.83;230.47;13.03;96.47;5.0;972.55;0.0;;;;NaN;;;;;0 / 0;1346;2023-09-21 21:20:59:394
-9.9302;-1.596;-5.0369;-9.522;-2.1581;-0.9193;-0.685;0.6889;-4.6447;-1.7582;-0.9544;0.006;27.0;40.52;7.11;8.94;230.47;13.03;96.47;5.0;972.55;0.0;;;;NaN;;;;;0 / 0;1351;2023-09-21 21:20:59:399
-9.9302;-1.596;-5.0369;-9.522;-2.1581;-0.9193;-0.685;0.6889;-4.6447;-1.8022;-0.8145;-0.0759;27.0;40.52;7.11;8.94;230.47;13.03;96.47;5.0;972.55;0.0;;;;NaN;;;;;0 / 0;1355;2023-09-21 21:20:59:403
-10.1743;-1.5984;-5.4126;-9.5292;-2.1427;-0.8792;-0.5208;0.5211;-4.28;-1.8022;-0.8145;-0.0759;27.0;40.52;7.11;8.94;230.47;13.03;96.47;5.0;972.55;0.0;;;;NaN;;;;;0 / 0;1361;2023-09-21 21:20:59:409
-10.1743;-1.5984;-5.4126;-9.5292;-2.1427;-0.8792;-0.5208;0.5211;-4.28;-1.9152;-0.7907;-0.1101;27.0;40.52;7.11;8.94;230.47;13.03;96.47;5.0;972.55;0.0;;;;NaN;;;;;0 / 0;1367;2023-09-21 21:20:59:415
-10.1743;-1.5984;-5.4126;-9.5292;-2.1427;-0.8792;-0.5208;0.5211;-4.28;-1.9152;-0.7907;-0.0875;27.0;40.54;7.09;8.06;241.81;12.62;95.27;5.0;972.55;0.0;;;;NaN;;;;;0 / 0;1371;2023-09-21 21:20:59:419
-10.1504;-1.6487;-5.7045;-9.5355;-2.1282;-0.8462;-0.6535;0.5097;-4.8486;-2.1156;-0.8506;-0.0875;27.0;40.54;7.09;8.06;241.81;12.62;95.27;5.0;972.55;0.0;;;;NaN;;;;;0 / 0;1376;2023-09-21 21:20:59:424
-10.1504;-1.6487;-5.7045;-9.5355;-2.1282;-0.8462;-0.6535;0.5097;-4.8486;-2.1156;-0.8506;-0.0875;27.0;40.54;7.09;8.06;241.81;12.62;95.27;5.0;972.55;0.0;;;;NaN;;;;;0 / 0;1380;2023-09-21 21:20:59:428
-9.9661;-1.8616;-4.1157;-9.5355;-2.1282;-0.8462;-0.6535;0.5097;-4.8486;-2.3624;-1.0747;-0.0185;27.0;40.54;7.09;8.06;241.81;12.62;95.27;5.0;972.55;0.0;;;;NaN;;;;;0 / 0;1386;2023-09-21 21:20:59:434
-9.9661;-1.8616;-4.1157;-9.546;-2.1023;-0.7901;-0.4797;0.2453;-3.4997;-2.3624;-1.0747;-0.0185;27.0;40.63;7.29;6.13;241.81;12.62;95.27;5.0;972.55;0.0;;;;NaN;;;;;0 / 0;1390;2023-09-21 21:20:59:438
-8.9252;-1.5793;-2.0243;-9.546;-2.1023;-0.7901;-0.4797;0.2453;-3.4997;-2.4516;-1.2036;0.0383;27.0;40.63;7.29;6.13;241.81;12.62;95.27;5.0;972.55;0.0;;;;NaN;;;;;0 / 0;1396;2023-09-21 21:20:59:444
-8.9252;-1.5793;-2.0243;-9.546;-2.1023;-0.7901;-0.4797;0.2453;-3.4997;-2.4516;-1.2036;0.0383;27.0;40.63;7.29;6.13;241.81;12.62;95.27;5.0;972.55;0.0;;;;NaN;;;;;0 / 0;1400;2023-09-21 21:20:59:448
-8.9252;-1.5793;-2.0243;-9.56;-2.0691;-0.7035;0.7277;0.5255;-1.0665;-2.4241;-1.2403;0.0426;27.0;40.63;7.29;6.13;241.81;12.62;95.27;5.0;972.55;0.0;;;;NaN;;;;;0 / 0;1405;2023-09-21 21:20:59:453
-7.6618;-1.3902;0.4044;-9.56;-2.0691;-0.7035;0.7277;0.5255;-1.0665;-2.4241;-1.2403;0.0426;27.0;40.88;6.73;4.61;226.72;12.18;94.21;5.0;972.55;0.0;;;;NaN;;;;;0 / 0;1411;2023-09-21 21:20:59:459
-7.6618;-1.3902;0.4044;-9.56;-2.0691;-0.7035;0.7277;0.5255;-1.0665;-2.2891;-1.2116;-0.0301;27.0;40.88;6.73;4.61;226.72;12.18;94.21;5.0;972.56;0.0;;;;NaN;;;;;0 / 0;1415;2023-09-21 21:20:59:463
-6.8124;-1.3352;1.4357;-9.5712;-2.0494;-0.6028;1.9755;0.6456;1.1453;-2.2891;-1.2116;-0.0301;27.0;40.88;6.73;4.61;226.72;12.18;94.21;5.0;972.56;0.0;;;;NaN;;;;;0 / 0;1421;2023-09-21 21:20:59:469
-6.8124;-1.3352;1.4357;-9.5712;-2.0494;-0.6028;1.9755;0.6456;1.1453;-2.0679;-1.2213;-0.1871;27.0;40.88;6.73;4.61;226.72;12.18;94.21;5.0;972.56;0.0;;;;NaN;;;;;0 / 0;1425;2023-09-21 21:20:59:473
-6.8124;-1.3352;1.4357;-9.5753;-2.0607;-0.4875;2.9085;0.7528;2.1329;-2.0679;-1.2213;-0.1871;27.0;41.01;6.17;3.23;226.72;12.18;94.21;5.0;972.56;0.0;;;;NaN;;;;;0 / 0;1431;2023-09-21 21:20:59:479
-6.4893;-1.3759;2.2828;-9.5753;-2.0607;-0.4875;2.9085;0.7528;2.1329;-1.8853;-1.2653;-0.3123;27.0;41.01;6.17;3.23;226.72;12.18;94.21;5.0;972.56;0.0;;;;NaN;;;;;0 / 0;1436;2023-09-21 21:20:59:484
-6.4893;-1.3759;2.2828;-9.5753;-2.0607;-0.4875;2.9085;0.7528;2.1329;-1.8853;-1.2653;-0.3123;27.0;41.01;6.17;3.23;226.72;12.18;94.21;5.0;972.56;0.0;;;;NaN;;;;;0 / 0;1440;2023-09-21 21:20:59:488
-7.1474;-1.7563;3.4217;-9.5728;-2.0982;-0.3587;2.6448;0.5305;3.154;-1.6965;-1.2348;-0.3709;27.0;41.01;6.17;3.23;226.72;12.18;94.21;5.0;972.56;0.0;;;;NaN;;;;;0 / 0;1446;2023-09-21 21:20:59:494
-7.1474;-1.7563;3.4217;-9.5728;-2.0982;-0.3587;2.6448;0.5305;3.154;-1.6965;-1.2348;-0.3709;27.0;41.16;6.28;1.73;189.02;12.35;92.15;5.0;972.56;0.0;;;;NaN;;;;;0 / 0;1450;2023-09-21 21:20:59:498
-7.3531;-1.7061;4.5344;-9.5728;-2.0982;-0.3587;2.6448;0.5305;3.154;-1.4265;-1.1089;-0.3551;27.0;41.16;6.28;1.73;189.02;12.35;92.15;5.0;972.56;0.0;;;;NaN;;;;;0 / 0;1457;2023-09-21 21:20:59:505
-7.3531;-1.7061;4.5344;-9.5671;-2.1417;-0.2339;2.2174;0.342;4.4007;-1.4265;-1.1089;-0.3551;27.0;41.16;6.28;1.73;189.02;12.35;92.15;5.0;972.56;0.0;;;;NaN;;;;;0 / 0;1461;2023-09-21 21:20:59:509
-7.3531;-1.7061;4.5344;-9.5671;-2.1417;-0.2339;2.2174;0.342;4.4007;-1.1156;-0.9721;-0.3428;27.0;41.16;6.28;1.73;189.02;12.35;92.15;5.0;972.56;0.0;;;;NaN;;;;;0 / 0;1466;2023-09-21 21:20:59:514
-7.4704;-1.4644;6.0778;-9.5671;-2.1417;-0.2339;2.2174;0.342;4.4007;-1.1156;-0.9721;-0.3428;27.0;41.1;5.68;0.71;189.02;12.35;92.15;5.0;972.56;0.0;;;;NaN;;;;;0 / 0;1471;2023-09-21 21:20:59:519
-7.4704;-1.4644;6.0778;-9.5588;-2.1875;-0.1211;2.0907;0.6871;6.0544;-0.7075;-0.7443;-0.374;27.0;41.1;5.68;0.71;189.02;12.35;92.15;5.0;972.56;0.0;;;;NaN;;;;;0 / 0;1475;2023-09-21 21:20:59:523
-7.4704;-1.4644;6.0778;-9.5588;-2.1875;-0.1211;2.0907;0.6871;6.0544;-0.7075;-0.7443;-0.374;27.0;41.1;5.68;0.71;189.02;12.35;92.15;5.0;972.56;0.0;;;;NaN;;;;;0 / 0;1480;2023-09-21 21:20:59:528
-8.5926;-1.3974;6.6951;-9.5588;-2.1875;-0.1211;2.0907;0.6871;6.0544;-0.1578;-0.4956;-0.3844;27.0;41.1;5.68;0.71;189.02;12.35;92.15;5.0;972.56;0.0;;;;NaN;;;;;0 / 0;1486;2023-09-21 21:20:59:534
-8.5926;-1.3974;6.6951;-9.5478;-2.2382;-0.0291;1.0316;0.8258;6.7312;-0.1578;-0.4956;-0.3844;27.0;41.51;6.13;-0.51;163.23;13.19;90.17;5.0;972.56;0.0;;;;NaN;;;;;0 / 0;1490;2023-09-21 21:20:59:538
-8.5926;-1.3974;6.6951;-9.5478;-2.2382;-0.0291;1.0316;0.8258;6.7312;-0.1578;-0.4956;-0.3844;27.0;41.51;6.13;-0.51;163.23;13.19;90.17;5.0;972.55;0.0;;;;NaN;;;;;0 / 0;1495;2023-09-21 21:20:59:543
-9.5521;-1.1605;5.8146;-9.5478;-2.2382;-0.0291;1.0316;0.8258;6.7312;0.2967;-0.2886;-0.3178;27.0;41.51;6.13;-0.51;163.23;13.19;90.17;5.0;972.55;0.0;;;;NaN;;;;;0 / 0;1501;2023-09-21 21:20:59:549
-9.5521;-1.1605;5.8146;-9.538;-2.2792;0.0449;-0.0456;1.1018;5.8705;0.2967;-0.2886;-0.3178;27.0;41.51;6.13;-0.51;163.23;13.19;90.17;5.0;972.55;0.0;;;;NaN;;;;;0 / 0;1505;2023-09-21 21:20:59:553
-9.3846;-1.3831;4.5966;-9.538;-2.2792;0.0449;-0.0456;1.1018;5.8705;0.5936;-0.0931;-0.2928;27.0;41.7;5.79;-2.29;163.23;13.19;90.17;5.0;972.55;0.0;;;;NaN;;;;;0 / 0;1510;2023-09-21 21:20:59:558
-9.3846;-1.3831;4.5966;-9.538;-2.2792;0.0449;-0.0456;1.1018;5.8705;0.5936;-0.0931;-0.2928;27.0;41.7;5.79;-2.29;163.23;13.19;90.17;5.0;972.55;0.0;;;;NaN;;;;;0 / 0;1516;2023-09-21 21:20:59:564
-9.3846;-1.3831;4.5966;-9.5293;-2.3141;0.0854;0.0828;0.8575;4.4054;0.8435;0.2124;-0.2659;27.0;41.7;5.79;-2.29;163.23;13.19;90.17;5.0;972.55;0.0;;;;NaN;;;;;0 / 0;1520;2023-09-21 21:20:59:568
-9.4684;-1.852;3.8596;-9.5293;-2.3141;0.0854;0.0828;0.8575;4.4054;0.8435;0.2124;-0.2659;27.0;41.7;5.79;-2.29;163.23;13.19;90.17;5.0;972.55;0.0;;;;NaN;;;;;0 / 0;1525;2023-09-21 21:20:59:573
-9.4684;-1.852;3.8596;-9.5293;-2.3141;0.0854;0.0828;0.8575;4.4054;0.9925;0.4029;-0.2292;27.0;41.91;5.59;-2.87;147.3;13.65;89.49;5.0;972.55;0.0;;;;NaN;;;;;0 / 0;1531;2023-09-21 21:20:59:579
-9.4684;-1.852;3.8596;-9.522;-2.3441;0.0856;0.0057;0.4697;3.5773;0.9925;0.4029;-0.2292;40.9725;41.91;5.59;-2.87;147.3;13.65;89.49;5.0;972.55;0.0;;;;NaN;;;;;0 / 0;1535;2023-09-21 21:20:59:583
-9.0233;-1.6774;3.0461;-9.522;-2.3441;0.0856;0.0057;0.4697;3.5773;0.9925;0.4029;-0.2292;40.9725;41.91;5.59;-2.87;147.3;13.65;89.49;5.0;972.55;0.0;;;;NaN;;;;;0 / 0;1540;2023-09-21 21:20:59:588
-9.0233;-1.6774;3.0461;-9.5156;-2.3705;0.0712;0.6126;0.7299;2.8008;1.1678;0.486;-0.2146;40.9725;41.91;5.59;-2.87;147.3;13.65;89.49;5.0;972.55;0.0;;;;NaN;;;;;0 / 0;1546;2023-09-21 21:20:59:594
-8.1619;-1.5218;2.6871;-9.5156;-2.3705;0.0712;0.6126;0.7299;2.8008;1.1678;0.486;-0.2146;40.9725;42.45;6.13;-3.88;147.3;13.65;89.49;5.0;972.55;0.0;;;;NaN;;;;;0 / 0;1551;2023-09-21 21:20:59:599
-8.1619;-1.5218;2.6871;-9.5156;-2.3705;0.0712;0.6126;0.7299;2.8008;1.3633;0.3614;-0.2677;40.9725;42.45;6.13;-3.88;147.3;13.65;89.49;5.0;972.55;0.0;;;;NaN;;;;;0 / 0;1555;2023-09-21 21:20:59:603
-6.9679;-1.4261;2.8235;-9.5063;-2.4071;0.0822;1.9722;0.9574;2.6368;1.3633;0.3614;-0.2677;40.9725;42.54;6.38;-3.9;147.3;13.65;89.49;5.0;972.55;0.0;;;;NaN;;;;;0 / 0;1560;2023-09-21 21:20:59:608
-6.9679;-1.4261;2.8235;-9.5063;-2.4071;0.0822;1.9722;0.9574;2.6368;1.6278;0.1885;-0.473;40.9725;42.54;6.38;-3.9;147.3;13.65;89.49;5.0;972.55;0.0;;;;NaN;;;;;0 / 0;1565;2023-09-21 21:20:59:613
-6.9679;-1.4261;2.8235;-9.5063;-2.4071;0.0822;1.9722;0.9574;2.6368;1.6278;0.1885;-0.473;40.9725;42.54;6.38;-3.9;147.3;13.65;89.49;5.0;972.55;0.0;;;;NaN;;;;;0 / 0;1571;2023-09-21 21:20:59:619
-7.1139;-2.7948;2.2612;-9.4868;-2.481;0.128;2.8332;0.498;2.5533;1.885;0.1989;-0.7637;40.9725;42.54;6.38;-3.9;147.3;13.65;89.49;5.0;972.55;0.0;;;;NaN;;;;;0 / 0;1576;2023-09-21 21:20:59:624
-7.1139;-2.7948;2.2612;-9.4868;-2.481;0.128;2.8332;0.498;2.5533;1.885;0.1989;-0.7637;40.9725;42.15;6.23;-3.62;144.62;14.65;89.23;5.0;972.55;0.0;;;;NaN;;;;;0 / 0;1581;2023-09-21 21:20:59:629
-7.1139;-2.7948;2.2612;-9.4868;-2.481;0.128;2.8332;0.498;2.5533;1.885;0.1989;-0.7637;40.9725;42.15;6.23;-3.62;144.62;14.65;89.23;5.0;972.55;0.0;;;;NaN;;;;;0 / 0;1586;2023-09-21 21:20:59:634
-9.1023;-4.5918;0.146;-9.4553;-2.596;0.17;0.8566;-1.4784;0.8296;1.9589;0.2905;-0.8877;40.9725;42.15;6.23;-3.62;144.62;14.65;89.23;5.0;972.55;0.0;;;;NaN;;;;;0 / 0;1591;2023-09-21 21:20:59:639
-9.1023;-4.5918;0.146;-9.4553;-2.596;0.17;0.8566;-1.4784;0.8296;1.9589;0.2905;-0.8877;40.9725;42.15;6.23;-3.62;144.62;14.65;89.23;5.0;972.55;0.0;;;;NaN;;;;;0 / 0;1595;2023-09-21 21:20:59:643
-10.8586;-5.4197;-3.1944;-9.4553;-2.596;0.17;0.8566;-1.4784;0.8296;1.7439;0.2612;-0.8767;40.9725;42.09;6.75;-3.54;144.62;14.65;89.23;5.0;972.55;0.0;;;;NaN;;;;;0 / 0;1601;2023-09-21 21:20:59:649
-10.8586;-5.4197;-3.1944;-9.4205;-2.7177;0.1945;-1.377;-2.6631;-3.0317;1.7439;0.2612;-0.8767;40.9725;42.09;6.75;-3.54;144.62;14.65;89.23;5.0;972.55;0.0;;;;NaN;;;;;0 / 0;1605;2023-09-21 21:20:59:653
-10.8586;-5.4197;-3.1944;-9.4205;-2.7177;0.1945;-1.377;-2.6631;-3.0317;1.3266;0.1158;-0.7442;40.9725;41.64;6.77;-3.22;144.62;14.65;89.23;5.0;972.55;0.0;;;;NaN;;;;;0 / 0;1610;2023-09-21 21:20:59:658
-11.5023;-5.4963;-4.855;-9.4205;-2.7177;0.1945;-1.377;-2.6631;-3.0317;1.3266;0.1158;-0.7442;40.9725;41.64;6.77;-3.22;144.62;14.65;89.23;5.0;972.55;0.0;;;;NaN;;;;;0 / 0;1616;2023-09-21 21:20:59:664
-11.5023;-5.4963;-4.855;-9.3917;-2.8143;0.2146;-2.2334;-2.78;-5.0331;0.7225;-0.1413;-0.5505;40.9725;41.64;6.77;-3.22;144.62;14.65;89.23;5.0;972.55;0.0;;;;NaN;;;;;0 / 0;1620;2023-09-21 21:20:59:668
-11.5023;-5.4963;-4.855;-9.3917;-2.8143;0.2146;-2.2334;-2.78;-5.0331;0.7225;-0.1413;-0.5505;40.9725;41.64;6.77;-3.22;144.62;14.65;89.23;5.0;972.55;0.0;;;;NaN;;;;;0 / 0;1626;2023-09-21 21:20:59:674
-9.1167;-3.8907;-4.398;-9.3917;-2.8143;0.2146;-2.2334;-2.78;-5.0331;0.3474;-0.4816;-0.4907;40.9725;41.19;7.22;-2.27;168.16;16.68;88.69;5.0;972.55;0.0;;;;NaN;;;;;0 / 0;1631;2023-09-21 21:20:59:679
-9.1167;-3.8907;-4.398;-9.3685;-2.8866;0.2632;-0.0873;-1.1958;-4.7392;0.3474;-0.4816;-0.4907;40.9725;41.19;7.22;-2.27;168.16;16.68;88.69;5.0;972.55;0.0;;;;NaN;;;;;0 / 0;1635;2023-09-21 21:20:59:683
-6.2812;-1.998;-3.3212;-9.3685;-2.8866;0.2632;-0.0873;-1.1958;-4.7392;0.0927;-0.7663;-0.5841;40.9725;41.19;7.22;-2.27;168.16;16.68;88.69;5.0;972.55;0.0;;;;NaN;;;;;0 / 0;1641;2023-09-21 21:20:59:689
-6.2812;-1.998;-3.3212;-9.3685;-2.8866;0.2632;-0.0873;-1.1958;-4.7392;0.0927;-0.7663;-0.5841;40.9725;41.19;7.22;-2.27;168.16;16.68;88.69;5.0;972.55;0.0;;;;NaN;;;;;0 / 0;1645;2023-09-21 21:20:59:693
-6.2812;-1.998;-3.3212;-9.3391;-2.9701;0.3608;3.1833;1.1336;-3.5675;-0.0429;-1.1267;-0.7912;40.9725;40.84;7.86;-2.04;168.16;16.68;88.69;5.0;972.55;0.0;;;;NaN;;;;;0 / 0;1650;2023-09-21 21:20:59:698
-4.331;-0.0909;-2.1009;-9.3391;-2.9701;0.3608;3.1833;1.1336;-3.5675;-0.0429;-1.1267;-0.7912;40.9725;40.84;7.86;-2.04;168.16;16.68;88.69;5.0;972.55;0.0;;;;NaN;;;;;0 / 0;1656;2023-09-21 21:20:59:704
-4.331;-0.0909;-2.1009;-9.2904;-3.0935;0.5369;4.9162;3.0779;-2.5576;-0.0429;-1.1267;-0.7912;40.9725;40.84;7.86;-2.04;168.16;16.68;88.69;5.0;972.55;0.0;;;;NaN;;;;;0 / 0;1661;2023-09-21 21:20:59:709
-4.611;0.7537;-0.8447;-9.2904;-3.0935;0.5369;4.9162;3.0779;-2.5576;-0.1174;-1.8615;-1.1449;40.9725;40.84;7.86;-2.04;168.16;16.68;88.69;5.0;972.55;0.0;;;;NaN;;;;;0 / 0;1665;2023-09-21 21:20:59:713
-4.611;0.7537;-0.8447;-9.2904;-3.0935;0.5369;4.9162;3.0779;-2.5576;-0.1174;-1.8615;-1.1449;40.9725;41.03;8.89;-2.76;171.91;18.39;86.69;5.0;972.55;0.0;;;;NaN;;;;;0 / 0;1671;2023-09-21 21:20:59:719
-4.611;0.7537;-0.8447;-9.2147;-3.2538;0.8201;3.8335;3.8876;-0.924;-0.0454;-2.396;-1.3233;40.9725;41.03;8.89;-2.76;171.91;18.39;86.69;5.0;972.55;0.0;;;;NaN;;;;;0 / 0;1676;2023-09-21 21:20:59:724
-7.5111;-0.5599;2.2804;-9.2147;-3.2538;0.8201;3.8335;3.8876;-0.924;-0.0454;-2.396;-1.3233;40.9725;41.03;8.89;-2.76;171.91;18.39;86.69;5.0;972.55;0.0;;;;NaN;;;;;0 / 0;1680;2023-09-21 21:20:59:728
-7.5111;-0.5599;2.2804;-9.2147;-3.2538;0.8201;3.8335;3.8876;-0.924;0.2729;-2.2366;-1.4308;40.9725;41.03;8.89;-2.76;171.91;18.39;86.69;5.0;972.55;0.0;;;;NaN;;;;;0 / 0;1686;2023-09-21 21:20:59:734
-12.9978;-4.5248;3.0748;-9.1175;-3.4288;1.1334;-1.1104;0.9297;1.9918;0.2729;-2.2366;-1.4308;40.9725;41.53;9.9;-3.71;171.91;18.39;86.69;5.0;972.55;0.0;;;;NaN;;;;;0 / 0;1691;2023-09-21 21:20:59:739
-12.9978;-4.5248;3.0748;-9.1175;-3.4288;1.1334;-1.1104;0.9297;1.9918;0.4708;-1.5952;-1.2921;0.0;41.53;9.9;-3.71;171.91;18.39;86.69;5.0;972.55;0.0;;;;NaN;;;;;0 / 0;1695;2023-09-21 21:20:59:743
-12.9978;-4.5248;3.0748;-9.1175;-3.4288;1.1334;-1.1104;0.9297;1.9918;0.4708;-1.5952;-1.2921;0.0;41.53;9.9;-3.71;171.91;18.39;86.69;5.0;972.55;0.0;;;;NaN;;;;;0 / 0;1700;2023-09-21 21:20:59:748
-16.6971;-6.5707;1.0504;-9.0331;-3.5764;1.3355;-6.4447;-2.6965;0.7333;0.4708;-1.5952;-1.2921;0.0;41.53;9.9;-3.71;171.91;18.39;86.69;5.0;972.55;0.0;;;;NaN;;;;;0 / 0;1706;2023-09-21 21:20:59:754
-16.6971;-6.5707;1.0504;-9.0331;-3.5764;1.3355;-6.4447;-2.6965;0.7333;0.4788;-0.7999;-0.9977;0.0;42.06;11.12;-5.16;193.01;21.39;81.59;5.0;972.55;0.0;;;;NaN;;;;;0 / 0;1710;2023-09-21 21:20:59:758
-16.0247;-5.616;-1.5745;-9.0331;-3.5764;1.3355;-6.4447;-2.6965;0.7333;0.4788;-0.7999;-0.9977;0.0;42.06;11.12;-5.16;193.01;21.39;81.59;5.0;972.55;0.0;;;;NaN;;;;;0 / 0;1716;2023-09-21 21:20:59:764
-16.0247;-5.616;-1.5745;-8.9809;-3.6767;1.4126;-7.8265;-2.4283;-2.2354;0.199;-0.2776;-0.6917;0.0;42.06;11.12;-5.16;193.01;21.39;81.59;5.0;972.55;0.0;;;;NaN;;;;;0 / 0;1721;2023-09-21 21:20:59:769
-16.0247;-5.616;-1.5745;-8.9809;-3.6767;1.4126;-7.8265;-2.4283;-2.2354;0.199;-0.2776;-0.6917;0.0;42.06;11.12;-5.16;193.01;21.39;81.59;5.0;972.55;0.0;;;;NaN;;;;;0 / 0;1725;2023-09-21 21:20:59:773
-12.883;-3.5892;-2.5244;-8.9809;-3.6767;1.4126;-7.8265;-2.4283;-2.2354;-0.2085;-0.1707;-0.5744;0.0;42.62;12.51;-6.56;193.01;21.39;81.59;5.0;972.55;0.0;;;;NaN;;;;;0 / 0;1731;2023-09-21 21:20:59:779
-12.883;-3.5892;-2.5244;-8.9496;-3.7528;1.4112;-4.4077;-0.0975;-3.9537;-0.2085;-0.1707;-0.5744;0.0;42.62;12.51;-6.56;193.01;21.39;81.59;5.0;972.54;0.0;;;;NaN;;;;;0 / 0;1735;2023-09-21 21:20:59:783
-9.7771;-1.5673;-1.6367;-8.9496;-3.7528;1.4112;-4.4077;-0.0975;-3.9537;-0.688;-0.17;-0.6391;0.0;42.62;12.51;-6.56;193.01;21.39;81.59;5.0;972.54;0.0;;;;NaN;;;;;0 / 0;1741;2023-09-21 21:20:59:789
-9.7771;-1.5673;-1.6367;-8.9152;-3.8432;1.3853;-0.6857;2.3034;-2.8131;-0.688;-0.17;-0.6391;0.0;42.62;12.51;-6.56;193.01;21.39;81.59;5.0;972.54;0.0;;;;NaN;;;;;0 / 0;1746;2023-09-21 21:20:59:794
-9.7771;-1.5673;-1.6367;-8.9152;-3.8432;1.3853;-0.6857;2.3034;-2.8131;-0.9366;-0.3283;-0.7112;0.0;42.53;13.37;-7.37;176.48;23.07;81.17;5.0;972.54;0.0;;;;NaN;;;;;0 / 0;1751;2023-09-21 21:20:59:799
-7.7264;-1.3735;1.1988;-8.9152;-3.8432;1.3853;-0.6857;2.3034;-2.8131;-0.9366;-0.3283;-0.7112;0.0;42.53;13.37;-7.37;176.48;23.07;81.17;5.0;972.54;0.0;;;;NaN;;;;;0 / 0;1756;2023-09-21 21:20:59:804
-7.7264;-1.3735;1.1988;-8.8675;-3.9501;1.3907;1.1867;2.4467;0.037;-0.983;-0.6484;-0.7656;0.0;42.53;13.37;-7.37;176.48;23.07;81.17;5.0;972.54;0.0;;;;NaN;;;;;0 / 0;1761;2023-09-21 21:20:59:809
-8.7362;-4.6612;2.7254;-8.8675;-3.9501;1.3907;1.1867;2.4467;0.037;-0.983;-0.6484;-0.7656;0.0;42.53;13.37;-7.37;176.48;23.07;81.17;5.0;972.54;0.0;;;;NaN;;;;;0 / 0;1765;2023-09-21 21:20:59:813
-8.7362;-4.6612;2.7254;-8.8675;-3.9501;1.3907;1.1867;2.4467;0.037;-0.983;-0.6484;-0.7656;0.0;42.39;14.57;-8.1;176.48;23.07;81.17;5.0;972.54;0.0;;;;NaN;;;;;0 / 0;1771;2023-09-21 21:20:59:819
-8.7362;-4.6612;2.7254;-8.8123;-4.0556;1.4374;-0.0557;-2.4643;2.9108;-0.7717;-0.7131;-0.6293;0.0;42.39;14.57;-8.1;176.48;23.07;81.17;5.0;972.54;0.0;;;;NaN;;;;;0 / 0;1776;2023-09-21 21:20:59:824
-8.5304;-8.741;6.4822;-8.8123;-4.0556;1.4374;-0.0557;-2.4643;2.9108;-0.7717;-0.7131;-0.6293;0.0;42.39;14.57;-8.1;176.48;23.07;81.17;5.0;972.54;0.0;;;;NaN;;;;;0 / 0;1780;2023-09-21 21:20:59:828
-8.5304;-8.741;6.4822;-8.8123;-4.0556;1.4374;-0.0557;-2.4643;2.9108;-0.2469;-0.3325;-0.6825;0.0;42.39;14.57;-8.1;176.48;23.07;81.17;5.0;972.54;0.0;;;;NaN;;;;;0 / 0;1786;2023-09-21 21:20:59:834
-8.351;-9.5952;5.7739;-8.7555;-4.1605;1.4835;0.2387;-5.5205;5.1714;-0.2469;-0.3325;-0.6825;0.0;42.11;15.32;-8.46;169.17;25.1;80.38;5.0;972.54;0.0;;;;NaN;;;;;0 / 0;1791;2023-09-21 21:20:59:839
-8.351;-9.5952;5.7739;-8.7555;-4.1605;1.4835;0.2387;-5.5205;5.1714;0.0127;0.0175;-0.7521;0.0;42.11;15.32;-8.46;169.17;25.1;80.38;5.0;972.54;0.0;;;;NaN;;;;;0 / 0;1795;2023-09-21 21:20:59:843
-8.351;-9.5952;5.7739;-8.7555;-4.1605;1.4835;0.2387;-5.5205;5.1714;0.0127;0.0175;-0.7521;0.0;42.11;15.32;-8.46;169.17;25.1;80.38;5.0;972.54;0.0;;;;NaN;;;;;0 / 0;1801;2023-09-21 21:20:59:849
-7.1354;-6.1591;2.8211;-8.7041;-4.2711;1.4722;0.8608;-3.6462;2.6451;0.0127;0.0175;-0.7521;0.0;42.11;15.32;-8.46;169.17;25.1;80.38;5.0;972.54;0.0;;;;NaN;;;;;0 / 0;1806;2023-09-21 21:20:59:854
-7.1354;-6.1591;2.8211;-8.7041;-4.2711;1.4722;0.8608;-3.6462;2.6451;-0.1254;0.5398;-0.8126;0.0;41.94;15.71;-8.79;169.17;25.1;80.38;5.0;972.54;0.0;;;;NaN;;;;;0 / 0;1810;2023-09-21 21:20:59:858
-7.1354;-6.1591;2.8211;-8.7041;-4.2711;1.4722;0.8608;-3.6462;2.6451;-0.1254;0.5398;-0.8126;0.0;41.94;15.71;-8.79;169.17;25.1;80.38;5.0;972.55;0.0;;;;NaN;;;;;0 / 0;1816;2023-09-21 21:20:59:864
-5.8409;-3.058;0.5575;-8.6563;-4.3957;1.3844;2.5344;0.3928;0.0053;-0.4931;0.5312;-1.0203;0.0;41.94;15.71;-8.79;169.17;25.1;80.38;5.0;972.55;0.0;;;;NaN;;;;;0 / 0;1820;2023-09-21 21:20:59:868
-5.8409;-3.058;0.5575;-8.6563;-4.3957;1.3844;2.5344;0.3928;0.0053;-0.4931;0.5312;-1.0203;0.0;41.94;15.71;-8.79;169.17;25.1;80.38;5.0;972.55;0.0;;;;NaN;;;;;0 / 0;1826;2023-09-21 21:20:59:874
-6.1041;-2.8355;1.8736;-8.6563;-4.3957;1.3844;2.5344;0.3928;0.0053;-0.702;-0.0198;-1.2451;0.0;42.17;16.5;-9.11;150.78;26.63;80.91;5.0;972.55;0.0;;;;NaN;;;;;0 / 0;1831;2023-09-21 21:20:59:879
-6.1041;-2.8355;1.8736;-8.5796;-4.558;1.3364;2.7731;1.7283;-0.3198;-0.702;-0.0198;-1.2451;0.0;42.17;16.5;-9.11;150.78;26.63;80.91;5.0;972.55;0.0;;;;NaN;;;;;0 / 0;1835;2023-09-21 21:20:59:883
-6.1041;-2.8355;1.8736;-8.5796;-4.558;1.3364;2.7731;1.7283;-0.3198;-0.5505;-0.8475;-1.305;0.0;42.17;16.5;-9.11;150.78;26.63;80.91;5.0;972.55;0.0;;;;NaN;;;;;0 / 0;1841;2023-09-21 21:20:59:889
-9.6311;-5.2499;4.9388;-8.5796;-4.558;1.3364;2.7731;1.7283;-0.3198;-0.5505;-0.8475;-1.305;0.0;42.17;16.5;-9.11;150.78;26.63;80.91;5.0;972.55;0.0;;;;NaN;;;;;0 / 0;1845;2023-09-21 21:20:59:893
-9.6311;-5.2499;4.9388;-8.4792;-4.7201;1.4123;-0.8151;-0.3695;3.2494;-0.1547;-0.8756;-1.0606;0.0;42.3;17.44;-9.11;150.78;26.63;80.91;5.0;972.55;0.0;;;;NaN;;;;;0 / 0;1850;2023-09-21 21:20:59:898
-9.6311;-5.2499;4.9388;-8.4792;-4.7201;1.4123;-0.8151;-0.3695;3.2494;-0.1547;-0.8756;-1.0606;0.0;42.3;17.44;-9.11;150.78;26.63;80.91;5.0;972.55;0.0;;;;NaN;;;;;0 / 0;1856;2023-09-21 21:20:59:904
-12.1627;-6.6832;4.3358;-8.4035;-4.821;1.5199;-3.8529;-2.0973;2.5863;0.1727;-0.6422;-0.6373;0.0;42.3;17.44;-9.11;150.78;26.63;80.91;5.0;972.55;0.0;;;;NaN;;;;;0 / 0;1861;2023-09-21 21:20:59:909
-12.1627;-6.6832;4.3358;-8.4035;-4.821;1.5199;-3.8529;-2.0973;2.5863;0.1727;-0.6422;-0.6373;0.0;42.3;17.44;-9.11;150.78;26.63;80.91;5.0;972.55;0.0;;;;NaN;;;;;0 / 0;1865;2023-09-21 21:20:59:913
-11.2917;-7.9585;1.4788;-8.4035;-4.821;1.5199;-3.8529;-2.0973;2.5863;0.2308;-0.3136;-0.4235;0.0;42.06;18.19;-9.24;165.73;29.45;79.75;5.0;972.55;0.0;;;;NaN;;;;;0 / 0;1870;2023-09-21 21:20:59:918
-11.2917;-7.9585;1.4788;-8.3625;-4.873;1.5788;-3.0498;-3.1329;0.2255;0.2308;-0.3136;-0.4235;0.0;42.06;18.19;-9.24;165.73;29.45;79.75;5.0;972.55;0.0;;;;NaN;;;;;0 / 0;1876;2023-09-21 21:20:59:924
-11.2917;-7.9585;1.4788;-8.3625;-4.873;1.5788;-3.0498;-3.1329;0.2255;0.1623;0.0205;-0.3233;0.0;42.06;18.19;-9.24;165.73;29.45;79.75;5.0;972.55;0.0;;;;NaN;;;;;0 / 0;1881;2023-09-21 21:20:59:929
-11.0333;-7.5015;-0.67;-8.3625;-4.873;1.5788;-3.0498;-3.1329;0.2255;0.1623;0.0205;-0.3233;0.0;42.06;18.19;-9.24;165.73;29.45;79.75;5.0;972.55;0.0;;;;NaN;;;;;0 / 0;1885;2023-09-21 21:20:59:933
-11.0333;-7.5015;-0.67;-8.3421;-4.9097;1.5729;-2.7985;-2.5324;-2.3585;-0.0319;0.0358;-0.2341;0.0;42.13;18.98;-9.0;165.73;29.45;79.75;5.0;972.55;0.0;;;;NaN;;;;;0 / 0;1891;2023-09-21 21:20:59:939
-12.1125;-7.1952;-1.1366;-8.3421;-4.9097;1.5729;-2.7985;-2.5324;-2.3585;-0.0319;0.0358;-0.2341;0.0;42.13;18.98;-9.0;165.73;29.45;79.75;5.0;972.55;0.0;;;;NaN;;;;;0 / 0;1895;2023-09-21 21:20:59:943
-12.1125;-7.1952;-1.1366;-8.3421;-4.9097;1.5729;-2.7985;-2.5324;-2.3585;-0.0319;0.0358;-0.2341;0.0;42.13;18.98;-9.0;165.73;29.45;79.75;5.0;972.55;0.0;;;;NaN;;;;;0 / 0;1900;2023-09-21 21:20:59:948
-12.1125;-7.1952;-1.1366;-8.3294;-4.9317;1.5717;-4.2106;-2.1922;-2.4302;-0.2695;-0.3448;-0.0881;0.0;42.13;18.98;-9.0;165.73;29.45;79.75;5.0;972.55;0.0;;;;NaN;;;;;0 / 0;1906;2023-09-21 21:20:59:954
-13.3256;-6.7956;0.3374;-8.3294;-4.9317;1.5717;-4.2106;-2.1922;-2.4302;-0.2695;-0.3448;-0.0881;0.0;42.26;19.71;-9.47;166.22;30.19;79.31;5.0;972.55;0.0;;;;NaN;;;;;0 / 0;1911;2023-09-21 21:20:59:959
-13.3256;-6.7956;0.3374;-8.3294;-4.9317;1.5717;-4.2106;-2.1922;-2.4302;-0.3062;-0.7131;0.1587;0.0;42.26;19.71;-9.47;166.22;30.19;79.31;5.0;972.55;0.0;;;;NaN;;;;;0 / 0;1916;2023-09-21 21:20:59:964
-13.3185;-6.0586;2.3617;-8.3309;-4.9103;1.6298;-5.1265;-1.5737;-0.1392;-0.3062;-0.7131;0.1587;0.0;42.26;19.71;-9.47;166.22;30.19;79.31;5.0;972.55;0.0;;;;NaN;;;;;0 / 0;1920;2023-09-21 21:20:59:968
-13.3185;-6.0586;2.3617;-8.3309;-4.9103;1.6298;-5.1265;-1.5737;-0.1392;-0.2115;-0.9165;0.6461;0.0;42.26;19.71;-9.47;166.22;30.19;79.31;5.0;972.55;0.0;;;;NaN;;;;;0 / 0;1925;2023-09-21 21:20:59:973
-13.3185;-6.0586;2.3617;-8.3309;-4.9103;1.6298;-5.1265;-1.5737;-0.1392;-0.2115;-0.9165;0.6461;0.0;42.0;19.99;-9.71;166.22;30.19;79.31;5.0;972.55;0.0;;;;NaN;;;;;0 / 0;1931;2023-09-21 21:20:59:979
-11.275;-5.0249;3.8692;-8.3641;-4.8156;1.7384;-4.0378;-0.5798;1.5496;-0.0441;-1.1487;1.0573;0.0;42.0;19.99;-9.71;166.22;30.19;79.31;5.0;972.55;0.0;;;;NaN;;;;;0 / 0;1935;2023-09-21 21:20:59:983
-11.275;-5.0249;3.8692;-8.3641;-4.8156;1.7384;-4.0378;-0.5798;1.5496;-0.0441;-1.1487;1.0573;0.0;42.0;19.99;-9.71;166.22;30.19;79.31;5.0;972.55;0.0;;;;NaN;;;;;0 / 0;1940;2023-09-21 21:20:59:988
-11.275;-5.0249;3.8692;-8.3641;-4.8156;1.7384;-4.0378;-0.5798;1.5496;0.2167;-1.1389;1.1654;0.0;42.0;19.99;-9.71;166.22;30.19;79.31;5.0;972.55;0.0;;;;NaN;;;;;0 / 0;1946;2023-09-21 21:20:59:994
-9.1693;-4.9412;5.0034;-8.4118;-4.6727;1.8914;-1.2735;-0.1958;2.7201;0.2167;-1.1389;1.1654;0.0;42.64;20.53;-10.11;172.84;28.46;77.33;5.0;972.55;0.0;;;;NaN;;;;;0 / 0;1951;2023-09-21 21:20:59:999
-9.1693;-4.9412;5.0034;-8.4118;-4.6727;1.8914;-1.2735;-0.1958;2.7201;0.5667;-0.9776;1.108;0.0;42.64;20.53;-10.11;172.84;28.46;77.33;5.0;972.55;0.0;;;;NaN;;;;;0 / 0;1955;2023-09-21 21:21:00:003
-10.1456;-4.9053;4.7186;-8.4118;-4.6727;1.8914;-1.2735;-0.1958;2.7201;0.5667;-0.9776;1.108;0.0;42.64;20.53;-10.11;172.84;28.46;77.33;5.0;972.55;0.0;;;;NaN;;;;;0 / 0;1961;2023-09-21 21:21:00:009
-10.1456;-4.9053;4.7186;-8.4559;-4.522;2.0544;-1.0784;-0.3265;2.998;0.7677;-0.7595;1.0456;0.0;42.64;20.53;-10.11;172.84;28.46;77.33;5.0;972.55;0.0;;;;NaN;;;;;0 / 0;1966;2023-09-21 21:21:00:014
-10.1456;-4.9053;4.7186;-8.4559;-4.522;2.0544;-1.0784;-0.3265;2.998;0.7677;-0.7595;1.0456;0.0;42.39;20.27;-10.87;172.84;28.46;77.33;5.0;972.55;0.0;;;;NaN;;;;;0 / 0;1970;2023-09-21 21:21:00:018
-13.8808;-5.5609;3.1346;-8.5119;-4.3572;2.1757;-4.534;-1.0244;1.5536;0.8056;-0.3918;1.191;0.0;42.39;20.27;-10.87;172.84;28.46;77.33;5.0;972.55;0.0;;;;NaN;;;;;0 / 0;1975;2023-09-21 21:21:00:023
-13.8808;-5.5609;3.1346;-8.5119;-4.3572;2.1757;-4.534;-1.0244;1.5536;0.8056;-0.3918;1.191;0.0;42.39;20.27;-10.87;172.84;28.46;77.33;5.0;972.55;0.0;;;;NaN;;;;;0 / 0;1980;2023-09-21 21:21:00:028
-13.8808;-5.5609;3.1346;-8.5119;-4.3572;2.1757;-4.534;-1.0244;1.5536;0.6559;0.103;1.6064;0.0;42.39;20.27;-10.87;172.84;28.46;77.33;5.0;972.55;0.0;;;;NaN;;;;;0 / 0;1985;2023-09-21 21:21:00:033
-13.6534;-5.6782;1.2802;-8.6109;-4.1408;2.2084;-5.6573;-1.7103;-0.6018;0.6559;0.103;1.6064;0.0;42.06;19.56;-11.14;169.43;26.38;75.66;5.0;972.55;0.0;;;;NaN;;;;;0 / 0;1991;2023-09-21 21:21:00:039
-13.6534;-5.6782;1.2802;-8.6109;-4.1408;2.2084;-5.6573;-1.7103;-0.6018;0.3615;0.3357;1.8453;0.0;42.06;19.56;-11.14;169.43;26.38;75.66;5.0;972.55;0.0;;;;NaN;;;;;0 / 0;1996;2023-09-21 21:21:00:044
-9.454;-4.1539;-0.8423;-8.6109;-4.1408;2.2084;-5.6573;-1.7103;-0.6018;0.3615;0.3357;1.8453;0.0;42.38;19.28;-11.44;169.43;26.38;75.66;5.0;972.55;0.0;;;;NaN;;;;;0 / 0;2001;2023-09-21 21:21:00:049
-9.454;-4.1539;-0.8423;-8.7322;-3.9026;2.1652;-1.0646;-0.383;-2.9602;0.3615;0.3357;1.8453;0.0;42.38;19.28;-11.44;169.43;26.38;75.66;5.0;972.55;0.0;;;;NaN;;;;;0 / 0;2006;2023-09-21 21:21:00:054
-9.454;-4.1539;-0.8423;-8.7322;-3.9026;2.1652;-1.0646;-0.383;-2.9602;-0.0918;0.3755;1.8251;0.0;42.38;19.28;-11.44;169.43;26.38;75.66;5.0;972.55;0.0;;;;NaN;;;;;0 / 0;2011;2023-09-21 21:21:00:059
-5.3408;-2.7422;0.1484;-8.7322;-3.9026;2.1652;-1.0646;-0.383;-2.9602;-0.0918;0.3755;1.8251;0.0;42.38;19.28;-11.44;169.43;26.38;75.66;5.0;972.55;0.0;;;;NaN;;;;;0 / 0;2016;2023-09-21 21:21:00:064
-5.3408;-2.7422;0.1484;-8.8343;-3.6974;2.1105;3.2339;0.8924;-2.105;-0.319;0.2032;1.5447;0.0;42.51;17.89;-12.11;169.43;26.38;75.66;5.0;972.55;0.0;;;;NaN;;;;;0 / 0;2021;2023-09-21 21:21:00:069
-5.3408;-2.7422;0.1484;-8.8343;-3.6974;2.1105;3.2339;0.8924;-2.105;-0.319;0.2032;1.5447;0.0;42.51;17.89;-12.11;169.43;26.38;75.66;5.0;972.55;0.0;;;;NaN;;;;;0 / 0;2025;2023-09-21 21:21:00:073
-3.8022;-2.0674;1.4213;-8.8343;-3.6974;2.1105;3.2339;0.8924;-2.105;-0.286;0.0657;1.2521;0.0;42.51;17.89;-12.11;169.43;26.38;75.66;5.0;972.55;0.0;;;;NaN;;;;;0 / 0;2031;2023-09-21 21:21:00:079
-3.8022;-2.0674;1.4213;-8.9025;-3.544;2.0871;5.204;1.5371;-0.6404;-0.286;0.0657;1.2521;0.0;42.51;17.89;-12.11;169.43;26.38;75.66;5.0;972.55;0.0;;;;NaN;;;;;0 / 0;2035;2023-09-21 21:21:00:083
-3.0939;-1.8185;1.6917;-8.9025;-3.544;2.0871;5.204;1.5371;-0.6404;-0.286;0.0657;1.2521;0.0;42.19;16.46;-12.09;112.04;21.19;76.81;5.0;972.55;0.0;;;;NaN;;;;;0 / 0;2040;2023-09-21 21:21:00:088
-3.0939;-1.8185;1.6917;-8.9025;-3.544;2.0871;5.204;1.5371;-0.6404;-0.0948;-0.349;0.8813;0.0;42.19;16.46;-12.09;112.04;21.19;76.81;5.0;972.55;0.0;;;;NaN;;;;;0 / 0;2046;2023-09-21 21:21:00:094
-3.996;-1.9813;1.5482;-8.9332;-3.4381;2.1324;5.7402;1.5474;-0.3163;-0.0948;-0.349;0.8813;0.0;42.19;16.46;-12.09;112.04;21.19;76.81;5.0;972.55;0.0;;;;NaN;;;;;0 / 0;2050;2023-09-21 21:21:00:098
-3.996;-1.9813;1.5482;-8.9332;-3.4381;2.1324;5.7402;1.5474;-0.3163;0.1031;-0.5366;0.6242;0.0;42.19;16.46;-12.09;112.04;21.19;76.81;5.0;972.55;0.0;;;;NaN;;;;;0 / 0;2056;2023-09-21 21:21:00:104
-3.996;-1.9813;1.5482;-8.9332;-3.4381;2.1324;5.7402;1.5474;-0.3163;0.1031;-0.5366;0.6242;0.0;42.66;14.98;-12.58;112.04;21.19;76.81;5.0;972.55;0.0;;;;NaN;;;;;0 / 0;2061;2023-09-21 21:21:00:109
-4.5966;-1.4764;1.6726;-8.9421;-3.3598;2.2185;4.645;1.4933;-0.8062;0.2216;-0.7424;0.5075;0.0;42.66;14.98;-12.58;112.04;21.19;76.81;5.0;972.55;0.0;;;;NaN;;;;;0 / 0;2065;2023-09-21 21:21:00:113
-4.5966;-1.4764;1.6726;-8.9421;-3.3598;2.2185;4.645;1.4933;-0.8062;0.2216;-0.7424;0.5075;0.0;42.66;14.98;-12.58;112.04;21.19;76.81;5.0;972.55;0.0;;;;NaN;;;;;0 / 0;2071;2023-09-21 21:21:00:119
-4.5966;-1.4764;1.6726;-8.9421;-3.3598;2.2185;4.645;1.4933;-0.8062;0.3572;-0.8713;0.4;0.0;42.66;14.98;-12.58;112.04;21.19;76.81;5.0;972.55;0.0;;;;NaN;;;;;0 / 0;2075;2023-09-21 21:21:00:123
-4.8239;-1.6487;3.594;-8.9358;-3.2923;2.3413;4.6715;1.8863;0.1327;0.3572;-0.8713;0.4;0.0;42.62;13.97;-12.58;138.32;19.62;75.32;5.0;972.55;0.0;;;;NaN;;;;;0 / 0;2081;2023-09-21 21:21:00:129
-4.8239;-1.6487;3.594;-8.9358;-3.2923;2.3413;4.6715;1.8863;0.1327;0.3572;-0.8713;0.4;0.0;42.62;13.97;-12.58;138.32;19.62;75.32;5.0;972.55;0.0;;;;NaN;;;;;0 / 0;2086;2023-09-21 21:21:00:134
-5.4006;-2.1511;4.0439;-8.9358;-3.2923;2.3413;4.6715;1.8863;0.1327;0.7103;-0.8512;0.2955;0.0;42.62;13.97;-12.58;138.32;19.62;75.32;5.0;972.55;0.0;;;;NaN;;;;;0 / 0;2090;2023-09-21 21:21:00:138
-5.4006;-2.1511;4.0439;-8.9186;-3.2294;2.4899;3.5148;1.2159;1.6758;0.7103;-0.8512;0.2955;0.0;42.62;13.97;-12.58;138.32;19.62;75.32;5.0;972.55;0.0;;;;NaN;;;;;0 / 0;2095;2023-09-21 21:21:00:143
-5.0417;-2.8881;2.4526;-8.9186;-3.2294;2.4899;3.5148;1.2159;1.6758;1.0511;-0.6172;0.1361;0.0;42.23;13.22;-12.32;138.32;19.62;75.32;5.0;972.55;0.0;;;;NaN;;;;;0 / 0;2101;2023-09-21 21:21:00:149
-5.0417;-2.8881;2.4526;-8.9006;-3.1777;2.6175;3.8262;0.3334;0.0419;1.0511;-0.6172;0.1361;0.0;42.23;13.22;-12.32;138.32;19.62;75.32;5.0;972.55;0.0;;;;NaN;;;;;0 / 0;2106;2023-09-21 21:21:00:154
-5.0417;-2.8881;2.4526;-8.9006;-3.1777;2.6175;3.8262;0.3334;0.0419;1.1128;-0.3118;-0.0118;0.0;42.23;13.22;-12.32;138.32;19.62;75.32;5.0;972.55;0.0;;;;NaN;;;;;0 / 0;2110;2023-09-21 21:21:00:158
-5.2259;-3.2973;0.5121;-8.9006;-3.1777;2.6175;3.8262;0.3334;0.0419;1.1128;-0.3118;-0.0118;0.0;42.23;13.22;-12.32;138.32;19.62;75.32;5.0;972.55;0.0;;;;NaN;;;;;0 / 0;2116;2023-09-21 21:21:00:164
-5.2259;-3.2973;0.5121;-8.8882;-3.1559;2.6853;3.6526;-0.1439;-2.3966;0.921;-0.0992;-0.2048;0.0;42.32;12.23;-12.6;173.91;18.77;73.19;5.0;972.55;0.0;;;;NaN;;;;;0 / 0;2120;2023-09-21 21:21:00:168
-5.0584;-3.1298;-1.3615;-8.8882;-3.1559;2.6853;3.6526;-0.1439;-2.3966;0.921;-0.0992;-0.2048;0.0;42.32;12.23;-12.6;173.91;18.77;73.19;5.0;972.55;0.0;;;;NaN;;;;;0 / 0;2126;2023-09-21 21:21:00:174
-5.0584;-3.1298;-1.3615;-8.8882;-3.1559;2.6853;3.6526;-0.1439;-2.3966;0.6767;-0.1591;-0.4168;0.0;42.32;12.23;-12.6;173.91;18.77;73.19;5.0;972.55;0.0;;;;NaN;;;;;0 / 0;2130;2023-09-21 21:21:00:178
-5.0584;-3.1298;-1.3615;-8.8652;-3.184;2.7278;3.9442;0.2433;-4.5577;0.6767;-0.1591;-0.4168;0.0;42.32;12.23;-12.6;173.91;18.77;73.19;5.0;972.54;0.0;;;;NaN;;;;;0 / 0;2135;2023-09-21 21:21:00:183
-4.252;-2.2373;-2.2923;-8.8652;-3.184;2.7278;3.9442;0.2433;-4.5577;0.3541;-0.525;-0.7876;0.0;41.78;11.57;-11.92;173.91;18.77;73.19;5.0;972.54;0.0;;;;NaN;;;;;0 / 0;2140;2023-09-21 21:21:00:188
-4.252;-2.2373;-2.2923;-8.8652;-3.184;2.7278;3.9442;0.2433;-4.5577;0.3541;-0.525;-0.7876;0.0;41.78;11.57;-11.92;173.91;18.77;73.19;5.0;972.54;0.0;;;;NaN;;;;;0 / 0;2146;2023-09-21 21:21:00:194
-4.9938;-2.1535;-0.3733;-8.806;-3.2789;2.8059;4.3007;1.1393;-4.8016;0.191;-0.977;-1.0838;0.0;41.78;11.57;-11.92;173.91;18.77;73.19;5.0;972.54;0.0;;;;NaN;;;;;0 / 0;2150;2023-09-21 21:21:00:198
-4.9938;-2.1535;-0.3733;-8.806;-3.2789;2.8059;4.3007;1.1393;-4.8016;0.191;-0.977;-1.0838;0.0;41.78;11.57;-11.92;173.91;18.77;73.19;5.0;972.54;0.0;;;;NaN;;;;;0 / 0;2156;2023-09-21 21:21:00:204
-4.9938;-2.1535;-0.3733;-8.806;-3.2789;2.8059;4.3007;1.1393;-4.8016;0.191;-0.977;-1.0838;0.0;41.78;11.46;-11.51;197.29;19.53;72.33;5.0;972.54;0.0;;;;NaN;;;;;0 / 0;2160;2023-09-21 21:21:00:208
-6.1519;-2.7709;1.7515;-8.7007;-3.4273;2.9532;3.1022;0.9779;-2.2865;0.1917;-1.2971;-1.3593;0.0;41.78;11.46;-11.51;197.29;19.53;72.33;5.0;972.54;0.0;;;;NaN;;;;;0 / 0;2166;2023-09-21 21:21:00:214
-6.1519;-2.7709;1.7515;-8.7007;-3.4273;2.9532;3.1022;0.9779;-2.2865;0.1917;-1.2971;-1.3593;0.0;41.78;11.46;-11.51;197.29;19.53;72.33;5.0;972.54;0.0;;;;NaN;;;;;0 / 0;2171;2023-09-21 21:21:00:219
-6.6449;-3.4959;3.1202;-8.7007;-3.4273;2.9532;3.1022;0.9779;-2.2865;0.2741;-1.2708;-1.476;0.0;41.78;11.46;-11.51;197.29;19.53;72.33;5.0;972.54;0.0;;;;NaN;;;;;0 / 0;2175;2023-09-21 21:21:00:223
-6.6449;-3.4959;3.1202;-8.5712;-3.5986;3.1233;1.7941;0.2134;-0.1131;0.2741;-1.2708;-1.476;0.0;41.72;11.55;-11.4;197.29;19.53;72.33;5.0;972.54;0.0;;;;NaN;;;;;0 / 0;2181;2023-09-21 21:21:00:229
-6.6449;-3.4959;3.1202;-8.5712;-3.5986;3.1233;1.7941;0.2134;-0.1131;0.3493;-1.0295;-1.589;0.0;41.72;11.55;-11.4;197.29;19.53;72.33;5.0;972.54;0.0;;;;NaN;;;;;0 / 0;2185;2023-09-21 21:21:00:233
-6.2381;-4.1276;3.7759;-8.5712;-3.5986;3.1233;1.7941;0.2134;-0.1131;0.3493;-1.0295;-1.589;0.0;41.72;11.55;-11.4;197.29;19.53;72.33;5.0;972.54;0.0;;;;NaN;;;;;0 / 0;2190;2023-09-21 21:21:00:238
-6.2381;-4.1276;3.7759;-8.4427;-3.7812;3.2549;2.0293;-0.3068;0.4992;0.4323;-0.5653;-1.677;0.0;41.72;11.55;-11.4;197.29;19.53;72.33;5.0;972.54;0.0;;;;NaN;;;;;0 / 0;2196;2023-09-21 21:21:00:244
-6.0514;-4.9292;3.7304;-8.4427;-3.7812;3.2549;2.0293;-0.3068;0.4992;0.4323;-0.5653;-1.677;0.0;41.4;12.73;-11.46;226.33;22.68;68.92;5.0;972.54;0.0;;;;NaN;;;;;0 / 0;2201;2023-09-21 21:21:00:249
-6.0514;-4.9292;3.7304;-8.3232;-3.9664;3.341;2.1752;-1.0686;0.4181;0.5423;-0.4052;-1.7008;0.0;41.4;12.73;-11.46;226.33;22.68;68.92;5.0;972.54;0.0;;;;NaN;;;;;0 / 0;2205;2023-09-21 21:21:00:253
-6.0514;-4.9292;3.7304;-8.3232;-3.9664;3.341;2.1752;-1.0686;0.4181;0.5423;-0.4052;-1.7008;0.0;41.4;12.73;-11.46;226.33;22.68;68.92;5.0;972.54;0.0;;;;NaN;;;;;0 / 0;2210;2023-09-21 21:21:00:258
-5.4915;-5.6997;3.8213;-8.3232;-3.9664;3.341;2.1752;-1.0686;0.4181;0.7286;-0.4608;-1.7045;0.0;41.4;12.73;-11.46;226.33;22.68;68.92;5.0;972.54;0.0;;;;NaN;;;;;0 / 0;2216;2023-09-21 21:21:00:264
-5.4915;-5.6997;3.8213;-8.1983;-4.1402;3.4376;2.3348;-1.7855;0.4621;0.7286;-0.4608;-1.7045;0.0;41.25;14.16;-12.71;226.33;22.68;68.92;5.0;972.54;0.0;;;;NaN;;;;;0 / 0;2221;2023-09-21 21:21:00:269
-8.5831;-7.0971;3.4313;-8.1983;-4.1402;3.4376;2.3348;-1.7855;0.4621;0.8196;-0.3478;-1.542;0.0;41.25;14.16;-12.71;226.33;22.68;68.92;5.0;972.54;0.0;;;;NaN;;;;;0 / 0;2226;2023-09-21 21:21:00:274
-8.5831;-7.0971;3.4313;-8.1983;-4.1402;3.4376;2.3348;-1.7855;0.4621;0.8196;-0.3478;-1.542;0.0;41.25;14.16;-12.71;226.33;22.68;68.92;5.0;972.54;0.0;;;;NaN;;;;;0 / 0;2231;2023-09-21 21:21:00:279
-8.5831;-7.0971;3.4313;-8.0922;-4.273;3.5253;-1.099;-3.0651;-0.3944;0.8306;-0.3417;-1.0991;0.0;41.25;14.16;-12.71;226.33;22.68;68.92;5.0;972.54;0.0;;;;NaN;;;;;0 / 0;2236;2023-09-21 21:21:00:284
-9.533;-7.5805;1.943;-8.0922;-4.273;3.5253;-1.099;-3.0651;-0.3944;0.8306;-0.3417;-1.0991;0.0;40.88;15.39;-13.72;213.67;25.83;66.46;5.0;972.54;0.0;;;;NaN;;;;;0 / 0;2241;2023-09-21 21:21:00:289
-9.533;-7.5805;1.943;-8.0922;-4.273;3.5253;-1.099;-3.0651;-0.3944;0.7561;-0.4407;-0.7466;0.0;40.88;15.39;-13.72;213.67;25.83;66.46;5.0;972.54;0.0;;;;NaN;;;;;0 / 0;2246;2023-09-21 21:21:00:294
-9.533;-7.5805;1.943;-8.0164;-4.343;3.612;-0.7298;-3.0656;-2.2644;0.7561;-0.4407;-0.7466;0.0;40.88;15.39;-13.72;213.67;25.83;66.46;5.0;972.54;0.0;;;;NaN;;;;;0 / 0;2250;2023-09-21 21:21:00:298
-5.3791;-6.53;-0.0909;-8.0164;-4.343;3.612;-0.7298;-3.0656;-2.2644;0.7561;-0.4407;-0.7466;0.0;40.88;15.39;-13.72;213.67;25.83;66.46;5.0;972.54;0.0;;;;NaN;;;;;0 / 0;2256;2023-09-21 21:21:00:304
-5.3791;-6.53;-0.0909;-8.0164;-4.343;3.612;-0.7298;-3.0656;-2.2644;0.4867;-1.112;-0.6684;0.0;40.99;16.99;-14.01;213.67;25.83;66.46;5.0;972.54;0.0;;;;NaN;;;;;0 / 0;2261;2023-09-21 21:21:00:309
-1.3496;-4.6732;0.8925;-7.9179;-4.4058;3.7505;3.7142;-1.7041;-3.6881;0.4867;-1.112;-0.6684;0.0;40.99;16.99;-14.01;213.67;25.83;66.46;5.0;972.54;0.0;;;;NaN;;;;;0 / 0;2265;2023-09-21 21:21:00:313
-1.3496;-4.6732;0.8925;-7.9179;-4.4058;3.7505;3.7142;-1.7041;-3.6881;0.4867;-1.112;-0.6684;0.0;40.99;16.99;-14.01;213.67;25.83;66.46;5.0;972.54;0.0;;;;NaN;;;;;0 / 0;2271;2023-09-21 21:21:00:319
-1.3496;-4.6732;0.8925;-7.9179;-4.4058;3.7505;3.7142;-1.7041;-3.6881;-0.0838;-1.101;-1.3752;0.0;40.99;16.99;-14.01;213.67;25.83;66.46;5.0;972.54;0.0;;;;NaN;;;;;0 / 0;2275;2023-09-21 21:21:00:323
-0.7155;-2.8403;1.7109;-7.7674;-4.565;3.8728;7.0184;0.7756;-2.1728;-0.0838;-1.101;-1.3752;0.0;40.71;17.68;-14.68;228.79;27.74;63.5;5.0;972.54;0.0;;;;NaN;;;;;0 / 0;2281;2023-09-21 21:21:00:329
-0.7155;-2.8403;1.7109;-7.7674;-4.565;3.8728;7.0184;0.7756;-2.1728;-0.6739;-0.5543;-2.0068;0.0;40.71;17.68;-14.68;228.79;27.74;63.5;5.0;972.54;0.0;;;;NaN;;;;;0 / 0;2286;2023-09-21 21:21:00:334
-4.4937;-2.7948;3.2375;-7.7674;-4.565;3.8728;7.0184;0.7756;-2.1728;-0.6739;-0.5543;-2.0068;0.0;40.71;17.68;-14.68;228.79;27.74;63.5;5.0;972.54;0.0;;;;NaN;;;;;0 / 0;2290;2023-09-21 21:21:00:338
-4.4937;-2.7948;3.2375;-7.5954;-4.8563;3.8595;4.2264;2.311;-1.2796;-1.316;0.1702;-2.5322;0.0;40.71;17.68;-14.68;228.79;27.74;63.5;5.0;972.55;0.0;;;;NaN;;;;;0 / 0;2296;2023-09-21 21:21:00:344
-4.4937;-2.7948;3.2375;-7.5954;-4.8563;3.8595;4.2264;2.311;-1.2796;-1.316;0.1702;-2.5322;0.0;40.61;18.88;-15.17;228.79;27.74;63.5;5.0;972.55;0.0;;;;NaN;;;;;0 / 0;2300;2023-09-21 21:21:00:348
-4.6804;-3.9386;4.2449;-7.4231;-5.2439;3.6837;2.4341;1.3636;0.6055;-1.7863;0.8153;-2.9561;0.0;40.61;18.88;-15.17;228.79;27.74;63.5;5.0;972.55;0.0;;;;NaN;;;;;0 / 0;2305;2023-09-21 21:21:00:353
-4.6804;-3.9386;4.2449;-7.4231;-5.2439;3.6837;2.4341;1.3636;0.6055;-1.7863;0.8153;-2.9561;0.0;40.61;18.88;-15.17;228.79;27.74;63.5;5.0;972.55;0.0;;;;NaN;;;;;0 / 0;2311;2023-09-21 21:21:00:359
-3.0604;-6.1137;5.2642;-7.4231;-5.2439;3.6837;2.4341;1.3636;0.6055;-2.0606;1.2038;-3.4778;0.0;40.61;18.88;-15.17;228.79;27.74;63.5;5.0;972.55;0.0;;;;NaN;;;;;0 / 0;2316;2023-09-21 21:21:00:364
-3.0604;-6.1137;5.2642;-7.1953;-5.7248;3.4096;3.8629;-0.7901;2.2342;-2.0606;1.2038;-3.4778;0.0;40.67;20.66;-15.75;199.86;35.72;64.65;5.0;972.55;0.0;;;;NaN;;;;;0 / 0;2321;2023-09-21 21:21:00:369
-7.681;-8.9755;8.7625;-7.1953;-5.7248;3.4096;3.8629;-0.7901;2.2342;-1.9103;0.9662;-4.0661;0.0;40.67;20.66;-15.75;199.86;35.72;64.65;5.0;972.55;0.0;;;;NaN;;;;;0 / 0;2325;2023-09-21 21:21:00:373
-7.681;-8.9755;8.7625;-7.1953;-5.7248;3.4096;3.8629;-0.7901;2.2342;-1.9103;0.9662;-4.0661;0.0;40.67;20.66;-15.75;199.86;35.72;64.65;5.0;972.55;0.0;;;;NaN;;;;;0 / 0;2331;2023-09-21 21:21:00:379
-7.681;-8.9755;8.7625;-6.8699;-6.2216;3.2043;-2.1125;-3.4052;6.2157;-1.9103;0.9662;-4.0661;0.0;40.67;20.66;-15.75;199.86;35.72;64.65;5.0;972.55;0.0;;;;NaN;;;;;0 / 0;2335;2023-09-21 21:21:00:383
-12.9021;-10.3322;9.454;-6.8699;-6.2216;3.2043;-2.1125;-3.4052;6.2157;-0.9965;0.2869;-4.1033;0.0;40.58;22.74;-16.01;199.86;35.72;64.65;5.0;972.55;0.0;;;;NaN;;;;;0 / 0;2341;2023-09-21 21:21:00:389
-12.9021;-10.3322;9.454;-6.8699;-6.2216;3.2043;-2.1125;-3.4052;6.2157;-0.9965;0.2869;-4.1033;0.0;40.58;22.74;-16.01;199.86;35.72;64.65;5.0;972.55;0.0;;;;NaN;;;;;0 / 0;2346;2023-09-21 21:21:00:394
-18.3769;-9.9326;7.7384;-6.5186;-6.5963;3.1887;-9.6955;-3.8857;5.7255;0.0786;-0.5696;-3.3776;0.0;40.58;22.74;-16.01;199.86;35.72;64.65;5.0;972.55;0.0;;;;NaN;;;;;0 / 0;2351;2023-09-21 21:21:00:399
-18.3769;-9.9326;7.7384;-6.5186;-6.5963;3.1887;-9.6955;-3.8857;5.7255;0.0786;-0.5696;-3.3776;0.0;40.58;22.74;-16.01;199.86;35.72;64.65;5.0;972.55;0.0;;;;NaN;;;;;0 / 0;2355;2023-09-21 21:21:00:403
-18.3769;-9.9326;7.7384;-6.5186;-6.5963;3.1887;-9.6955;-3.8857;5.7255;0.6626;-1.3215;-2.3465;0.0;40.16;25.95;-15.84;198.35;42.27;63.93;5.0;972.55;0.0;;;;NaN;;;;;0 / 0;2360;2023-09-21 21:21:00:408
-20.1547;-8.7051;5.1924;-6.2306;-6.7966;3.3402;-14.083;-2.5033;2.9028;0.6626;-1.3215;-2.3465;0.0;40.16;25.95;-15.84;198.35;42.27;63.93;5.0;972.55;0.0;;;;NaN;;;;;0 / 0;2366;2023-09-21 21:21:00:414
-20.1547;-8.7051;5.1924;-6.2306;-6.7966;3.3402;-14.083;-2.5033;2.9028;0.7017;-1.2757;-1.5591;0.0;40.16;25.95;-15.84;198.35;42.27;63.93;5.0;972.55;0.0;;;;NaN;;;;;0 / 0;2371;2023-09-21 21:21:00:419
-13.5745;-8.9061;3.4074;-6.2306;-6.7966;3.3402;-10.6356;-1.8898;0.683;0.7017;-1.2757;-1.5591;0.0;40.16;25.95;-15.84;198.35;42.27;63.93;5.0;972.56;0.0;;;;NaN;;;;;0 / 0;2376;2023-09-21 21:21:00:424
-13.5745;-8.9061;3.4074;-6.0504;-6.8782;3.5004;-10.6356;-1.8898;0.683;0.7017;-1.2757;-1.5591;0.0;39.47;28.74;-14.92;198.35;42.27;63.93;5.0;972.56;0.0;;;;NaN;;;;;0 / 0;2380;2023-09-21 21:21:00:428
-13.5745;-8.9061;3.4074;-6.0504;-6.8782;3.5004;-10.6356;-1.8898;0.683;0.3932;-0.5463;-0.9904;0.0;39.47;28.74;-14.92;198.35;42.27;63.93;5.0;972.56;0.0;;;;NaN;;;;;0 / 0;2386;2023-09-21 21:21:00:434
-8.7697;-7.7216;2.7135;-6.0504;-6.8782;3.5004;-10.6356;-1.8898;0.683;0.3932;-0.5463;-0.9904;0.0;39.47;28.74;-14.92;198.35;42.27;63.93;5.0;972.56;0.0;;;;NaN;;;;;0 / 0;2390;2023-09-21 21:21:00:438
-8.7697;-7.7216;2.7135;-5.9432;-6.9428;3.5561;-4.0397;-1.4288;-0.9666;0.0695;-0.2818;-0.9775;0.0;39.47;28.74;-14.92;198.35;42.27;63.93;5.0;972.56;0.0;;;;NaN;;;;;0 / 0;2396;2023-09-21 21:21:00:444
-7.121;-5.9222;2.6824;-5.9432;-6.9428;3.5561;-4.0397;-1.4288;-0.9666;0.0695;-0.2818;-0.9775;0.0;38.7;31.29;-14.29;229.31;45.07;59.11;5.0;972.56;0.0;;;;NaN;;;;;0 / 0;2401;2023-09-21 21:21:00:449
-7.121;-5.9222;2.6824;-5.8216;-7.0441;3.558;-1.2429;1.2373;-0.767;-0.305;-0.3191;-1.1816;0.0;38.7;31.29;-14.29;229.31;45.07;59.11;5.0;972.56;0.0;;;;NaN;;;;;0 / 0;2406;2023-09-21 21:21:00:454
-7.121;-5.9222;2.6824;-5.8216;-7.0441;3.558;-1.2429;1.2373;-0.767;-0.305;-0.3191;-1.1816;0.0;38.7;31.29;-14.29;229.31;45.07;59.11;5.0;972.56;0.0;;;;NaN;;;;;0 / 0;2411;2023-09-21 21:21:00:459
-7.1785;-4.8574;4.7043;-5.8216;-7.0441;3.558;-1.2429;1.2373;-0.767;-0.5469;-0.3087;-1.2842;0.0;38.7;31.29;-14.29;229.31;45.07;59.11;5.0;972.56;0.0;;;;NaN;;;;;0 / 0;2415;2023-09-21 21:21:00:463
-7.1785;-4.8574;4.7043;-5.6818;-7.1686;3.5354;-1.5375;2.3256;1.3631;-0.5469;-0.3087;-1.2842;0.0;38.1;33.38;-14.29;229.31;45.07;59.11;5.0;972.56;0.0;;;;NaN;;;;;0 / 0;2421;2023-09-21 21:21:00:469
-8.4969;-4.5344;6.4463;-5.6818;-7.1686;3.5354;-1.5375;2.3256;1.3631;-0.6403;-0.3594;-1.2677;0.0;38.1;33.38;-14.29;229.31;45.07;59.11;5.0;972.56;0.0;;;;NaN;;;;;0 / 0;2425;2023-09-21 21:21:00:473
-8.4969;-4.5344;6.4463;-5.6818;-7.1686;3.5354;-1.5375;2.3256;1.3631;-0.6403;-0.3594;-1.2677;0.0;38.1;33.38;-14.29;229.31;45.07;59.11;5.0;972.56;0.0;;;;NaN;;;;;0 / 0;2431;2023-09-21 21:21:00:479
-8.4969;-4.5344;6.4463;-5.5425;-7.2846;3.5194;-3.9218;2.6081;3.3965;-0.5426;-0.7033;-1.0789;0.0;38.1;33.38;-14.29;229.31;45.07;59.11;5.0;972.56;0.0;;;;NaN;;;;;0 / 0;2436;2023-09-21 21:21:00:484
-11.4018;-4.7976;7.2311;-5.5425;-7.2846;3.5194;-3.9218;2.6081;3.3965;-0.5426;-0.7033;-1.0789;0.0;37.71;34.71;-14.16;235.07;47.97;57.58;5.0;972.56;0.0;;;;NaN;;;;;0 / 0;2440;2023-09-21 21:21:00:488
-11.4018;-4.7976;7.2311;-5.5425;-7.2846;3.5194;-3.9218;2.6081;3.3965;-0.5426;-0.7033;-1.0789;0.0;37.71;34.71;-14.16;235.07;47.97;57.58;5.0;972.56;0.0;;;;NaN;;;;;0 / 0;2446;2023-09-21 21:21:00:494
-11.4018;-4.7976;7.2311;-5.38;-7.3503;3.6331;-3.9218;2.6081;3.3965;-0.1407;-2.3722;-0.812;0.0;37.71;34.71;-14.16;235.07;47.97;57.58;5.0;972.56;0.0;;;;NaN;;;;;0 / 0;2451;2023-09-21 21:21:00:499
-10.0355;-3.5294;2.9288;-5.38;-7.3503;3.6331;-5.7486;3.6483;1.1496;-0.1407;-2.3722;-0.812;0.0;37.69;35.14;-14.38;235.07;47.97;57.58;5.0;972.57;0.0;;;;NaN;;;;;0 / 0;2456;2023-09-21 21:21:00:504
-10.0355;-3.5294;2.9288;-5.38;-7.3503;3.6331;-5.7486;3.6483;1.1496;0.0615;-4.4406;-0.6367;0.0;37.69;35.14;-14.38;235.07;47.97;57.58;5.0;972.57;0.0;;;;NaN;;;;;0 / 0;2460;2023-09-21 21:21:00:508
-8.8152;-7.9322;2.9145;-5.101;-7.3861;3.9492;-4.2589;1.5167;-1.6072;0.0615;-4.4406;-0.6367;0.0;37.69;35.14;-14.38;235.07;47.97;57.58;5.0;972.57;0.0;;;;NaN;;;;;0 / 0;2465;2023-09-21 21:21:00:513
-8.8152;-7.9322;2.9145;-5.101;-7.3861;3.9492;-4.2589;1.5167;-1.6072;-0.0692;-4.9867;-0.2659;0.0;37.63;36.39;-14.87;235.07;47.97;57.58;5.0;972.57;0.0;;;;NaN;;;;;0 / 0;2471;2023-09-21 21:21:00:519
-8.8152;-7.9322;2.9145;-5.101;-7.3861;3.9492;-4.2589;1.5167;-1.6072;-0.0692;-4.9867;-0.2659;0.0;37.63;36.39;-14.87;235.07;47.97;57.58;5.0;972.57;0.0;;;;NaN;;;;;0 / 0;2475;2023-09-21 21:21:00:523
-7.2957;-10.8754;4.5751;-4.8083;-7.404;4.2699;-2.9786;-2.9039;-0.267;-0.3948;-4.5041;0.2185;0.0;37.63;36.39;-14.87;235.07;47.97;57.58;5.0;972.57;0.0;;;;NaN;;;;;0 / 0;2481;2023-09-21 21:21:00:529
-7.2957;-10.8754;4.5751;-4.8083;-7.404;4.2699;-2.9786;-2.9039;-0.267;-0.3948;-4.5041;0.2185;0.0;37.63;36.39;-14.87;235.07;47.97;57.58;5.0;972.57;0.0;;;;NaN;;;;;0 / 0;2486;2023-09-21 21:21:00:534
-5.75;-11.385;7.011;-4.8083;-7.404;4.2699;-2.9786;-2.9039;-0.267;-0.3288;-3.867;0.5802;0.0;36.84;37.5;-15.45;255.35;49.02;48.39;5.0;972.57;0.0;;;;NaN;;;;;0 / 0;2490;2023-09-21 21:21:00:538
-5.75;-11.385;7.011;-4.5965;-7.3989;4.5054;-1.3301;-4.0066;2.3544;-0.3288;-3.867;0.5802;0.0;36.84;37.5;-15.45;255.35;49.02;48.39;5.0;972.57;0.0;;;;NaN;;;;;0 / 0;2496;2023-09-21 21:21:00:544
-5.75;-11.385;7.011;-4.5965;-7.3989;4.5054;-1.3301;-4.0066;2.3544;-0.3288;-3.867;0.5802;0.0;36.84;37.5;-15.45;255.35;49.02;48.39;5.0;972.57;0.0;;;;NaN;;;;;0 / 0;2500;2023-09-21 21:21:00:548
-3.5677;-10.7366;6.8411;-4.5965;-7.3989;4.5054;-1.3301;-4.0066;2.3544;0.0292;-2.9287;0.8178;0.0;36.84;37.5;-15.45;255.35;49.02;48.39;5.0;972.57;0.0;;;;NaN;;;;;0 / 0;2505;2023-09-21 21:21:00:553
-3.5677;-10.7366;6.8411;-4.4932;-7.3451;4.6937;1.2433;-3.3118;1.8353;0.0292;-2.9287;0.8178;0.0;35.98;38.19;-16.72;255.35;49.02;48.39;5.0;972.57;0.0;;;;NaN;;;;;0 / 0;2511;2023-09-21 21:21:00:559
-2.1535;-10.2867;3.5438;-4.4932;-7.3451;4.6937;1.2433;-3.3118;1.8353;0.3554;-1.3515;0.7775;0.0;35.98;38.19;-16.72;255.35;49.02;48.39;5.0;972.57;0.0;;;;NaN;;;;;0 / 0;2515;2023-09-21 21:21:00:563
-2.1535;-10.2867;3.5438;-4.4931;-7.2799;4.7943;2.1722;-2.9424;-1.4821;0.3554;-1.3515;0.7775;0.0;35.98;38.19;-16.72;255.35;49.02;48.39;5.0;972.57;0.0;;;;NaN;;;;;0 / 0;2521;2023-09-21 21:21:00:569
-2.1535;-10.2867;3.5438;-4.4931;-7.2799;4.7943;2.1722;-2.9424;-1.4821;0.4336;-0.1688;0.651;0.0;35.98;38.19;-16.72;255.35;49.02;48.39;5.0;972.57;0.0;;;;NaN;;;;;0 / 0;2526;2023-09-21 21:21:00:574
-3.5318;-8.9492;1.5434;-4.4931;-7.2799;4.7943;2.1722;-2.9424;-1.4821;0.4336;-0.1688;0.651;0.0;35.34;38.19;-18.68;258.3;47.93;43.14;5.0;972.57;0.0;;;;NaN;;;;;0 / 0;2530;2023-09-21 21:21:00:578
-3.5318;-8.9492;1.5434;-4.574;-7.2226;4.8045;0.9445;-2.0371;-4.0695;0.3383;0.5667;0.5924;0.0;35.34;38.19;-18.68;258.3;47.93;43.14;5.0;972.58;0.0;;;;NaN;;;;;0 / 0;2536;2023-09-21 21:21:00:584
-3.8596;-9.2483;-0.859;-4.574;-7.2226;4.8045;0.9445;-2.0371;-4.0695;0.3383;0.5667;0.5924;0.0;35.34;38.19;-18.68;258.3;47.93;43.14;5.0;972.58;0.0;;;;NaN;;;;;0 / 0;2540;2023-09-21 21:21:00:588
-3.8596;-9.2483;-0.859;-4.574;-7.2226;4.8045;0.9445;-2.0371;-4.0695;0.1581;1.4103;0.6174;0.0;35.34;38.19;-18.68;258.3;47.93;43.14;5.0;972.58;0.0;;;;NaN;;;;;0 / 0;2546;2023-09-21 21:21:00:594
-3.8596;-9.2483;-0.859;-4.7261;-7.1806;4.7194;1.1732;-1.7086;-5.7404;0.1581;1.4103;0.6174;0.0;34.29;38.06;-19.61;258.3;47.93;43.14;5.0;972.58;0.0;;;;NaN;;;;;0 / 0;2551;2023-09-21 21:21:00:599
-3.0221;-7.6427;-1.3519;-4.7261;-7.1806;4.7194;1.1732;-1.7086;-5.7404;0.1581;1.4103;0.6174;0.0;34.29;38.06;-19.61;258.3;47.93;43.14;5.0;972.58;0.0;;;;NaN;;;;;0 / 0;2556;2023-09-21 21:21:00:604
-3.0221;-7.6427;-1.3519;-4.7261;-7.1806;4.7194;1.1732;-1.7086;-5.7404;0.0029;1.7322;0.7194;0.0;34.29;38.06;-19.61;258.3;47.93;43.14;5.0;972.58;0.0;;;;NaN;;;;;0 / 0;2561;2023-09-21 21:21:00:609
-2.3498;-5.1685;-0.6078;-4.9163;-7.1408;4.5835;2.3833;0.82;-5.8421;0.0029;1.7322;0.7194;0.0;34.29;38.06;-19.61;258.3;47.93;43.14;5.0;972.58;0.0;;;;NaN;;;;;0 / 0;2565;2023-09-21 21:21:00:613
-2.3498;-5.1685;-0.6078;-4.9163;-7.1408;4.5835;2.3833;0.82;-5.8421;-0.1688;1.6748;0.929;0.0;34.2;37.22;-20.89;247.91;46.73;47.01;5.0;972.58;0.0;;;;NaN;;;;;0 / 0;2571;2023-09-21 21:21:00:619
-2.3498;-5.1685;-0.6078;-4.9163;-7.1408;4.5835;2.3833;0.82;-5.8421;-0.1688;1.6748;0.929;0.0;34.2;37.22;-20.89;247.91;46.73;47.01;5.0;972.58;0.0;;;;NaN;;;;;0 / 0;2575;2023-09-21 21:21:00:623
-0.9547;-4.9986;2.9432;-5.1342;-7.0881;4.4237;3.8013;2.4912;-4.0617;-0.2946;1.8287;1.0756;0.0;34.2;37.22;-20.89;247.91;46.73;47.01;5.0;972.58;0.0;;;;NaN;;;;;0 / 0;2580;2023-09-21 21:21:00:628
-0.9547;-4.9986;2.9432;-5.1342;-7.0881;4.4237;3.8013;2.4912;-4.0617;-0.2946;1.8287;1.0756;0.0;34.2;37.22;-20.89;247.91;46.73;47.01;5.0;972.58;0.0;;;;NaN;;;;;0 / 0;2585;2023-09-21 21:21:00:633
-1.1055;-3.7711;1.3854;-5.1342;-7.0881;4.4237;3.8013;2.4912;-4.0617;-0.3398;2.442;1.0475;0.0;34.5;36.81;-20.79;247.91;46.73;47.01;5.0;972.58;0.0;;;;NaN;;;;;0 / 0;2591;2023-09-21 21:21:00:639
-1.1055;-3.7711;1.3854;-5.3811;-7.0306;4.2171;4.4673;3.0583;-2.8205;-0.3398;2.442;1.0475;0.0;34.5;36.81;-20.79;247.91;46.73;47.01;5.0;972.58;0.0;;;;NaN;;;;;0 / 0;2596;2023-09-21 21:21:00:644
-1.1055;-3.7711;1.3854;-5.3811;-7.0306;4.2171;4.4673;3.0583;-2.8205;-0.3398;2.442;1.0475;0.0;34.5;36.81;-20.79;247.91;46.73;47.01;5.0;972.58;0.0;;;;NaN;;;;;0 / 0;2600;2023-09-21 21:21:00:648
-0.9045;-3.5677;1.7228;-5.6571;-6.9713;3.9456;4.6514;3.3664;-2.1765;-0.2836;3.0211;1.0084;0.0;34.5;36.47;-20.38;247.91;46.73;47.01;5.0;972.58;0.0;;;;NaN;;;;;0 / 0;2607;2023-09-21 21:21:00:655
-0.9045;-3.5677;1.7228;-5.6571;-6.9713;3.9456;4.6514;3.3664;-2.1765;-0.2836;3.0211;1.0084;0.0;34.5;36.47;-20.38;247.91;46.73;47.01;5.0;972.58;0.0;;;;NaN;;;;;0 / 0;2610;2023-09-21 21:21:00:658
-0.347;-3.8166;2.345;-5.6571;-6.9713;3.9456;4.6514;3.3664;-2.1765;-0.2506;3.566;0.9723;0.0;34.5;36.47;-20.38;247.91;46.73;47.01;5.0;972.58;0.0;;;;NaN;;;;;0 / 0;2616;2023-09-21 21:21:00:664
-0.347;-3.8166;2.345;-5.6571;-6.9713;3.9456;4.6514;3.3664;-2.1765;-0.2506;3.566;0.9723;0.0;35.51;36.49;-19.8;227.76;45.31;55.11;5.0;972.58;0.0;;;;NaN;;;;;0 / 0;2620;2023-09-21 21:21:00:668
-0.347;-3.8166;2.345;-5.9516;-6.9047;3.6158;5.5619;3.0856;-1.2196;-0.1187;4.1659;1.0072;0.0;35.51;36.49;-19.8;227.76;45.31;55.11;5.0;972.58;0.0;;;;NaN;;;;;0 / 0;2626;2023-09-21 21:21:00:674
-0.67;-4.7569;2.7182;-5.9516;-6.9047;3.6158;5.5619;3.0856;-1.2196;-0.1187;4.1659;1.0072;0.0;35.51;36.49;-19.8;227.76;45.31;55.11;5.0;972.58;0.0;;;;NaN;;;;;0 / 0;2630;2023-09-21 21:21:00:678
-0.67;-4.7569;2.7182;-6.2606;-6.82;3.2345;5.5021;1.7373;-0.3972;0.0218;4.4646;1.0725;0.0;35.51;36.49;-19.8;227.76;45.31;55.11;5.0;972.58;0.0;;;;NaN;;;;;0 / 0;2636;2023-09-21 21:21:00:684
-0.67;-4.7569;2.7182;-6.2606;-6.82;3.2345;5.5021;1.7373;-0.3972;0.0218;4.4646;1.0725;0.0;36.69;35.68;-18.41;227.76;45.31;55.11;5.0;972.58;0.0;;;;NaN;;;;;0 / 0;2641;2023-09-21 21:21:00:689
-0.1699;-7.6714;3.3188;-6.2606;-6.82;3.2345;5.5021;1.7373;-0.3972;0.1434;4.4866;1.0408;0.0;36.69;35.68;-18.41;227.76;45.31;55.11;5.0;972.58;0.0;;;;NaN;;;;;0 / 0;2646;2023-09-21 21:21:00:694
-0.1699;-7.6714;3.3188;-6.5394;-6.7319;2.8441;6.3761;-1.2571;0.6413;0.1434;4.4866;1.0408;0.0;36.69;35.68;-18.41;227.76;45.31;55.11;5.0;972.58;0.0;;;;NaN;;;;;0 / 0;2650;2023-09-21 21:21:00:698
1.2706;-9.9757;4.7402;-6.5394;-6.7319;2.8441;6.3761;-1.2571;0.6413;0.3853;4.4377;0.6865;0.0;36.69;35.68;-18.41;227.76;45.31;55.11;5.0;972.58;0.0;;;;NaN;;;;;0 / 0;2656;2023-09-21 21:21:00:704
1.2706;-9.9757;4.7402;-6.5394;-6.7319;2.8441;6.3761;-1.2571;0.6413;0.3853;4.4377;0.6865;0.0;37.95;34.74;-16.63;172.09;43.35;66.5;5.0;972.58;0.0;;;;NaN;;;;;0 / 0;2660;2023-09-21 21:21:00:708
1.2706;-9.9757;4.7402;-6.7341;-6.6839;2.4794;8.0694;-3.9478;2.7708;0.6956;4.4273;0.1794;0.0;37.95;34.74;-16.63;172.09;43.35;66.5;5.0;972.58;0.0;;;;NaN;;;;;0 / 0;2665;2023-09-21 21:21:00:713
1.7324;-11.4401;4.8383;-6.7341;-6.6839;2.4794;8.0694;-3.9478;2.7708;0.6956;4.4273;0.1794;0.0;37.95;34.74;-16.63;172.09;43.35;66.5;5.0;972.58;0.0;;;;NaN;;;;;0 / 0;2671;2023-09-21 21:21:00:719
1.7324;-11.4401;4.8383;-6.7341;-6.6839;2.4794;8.0694;-3.9478;2.7708;0.7176;3.0071;-0.4974;0.0;37.95;34.74;-16.63;172.09;43.35;66.5;5.0;972.58;0.0;;;;NaN;;;;;0 / 0;2676;2023-09-21 21:21:00:724
2.4861;-14.869;0.3422;-6.768;-6.7288;2.2558;8.9464;-6.5367;0.5247;0.7176;3.0071;-0.4974;0.0;39.11;33.86;-14.27;172.09;43.35;66.5;5.0;972.58;0.0;;;;NaN;;;;;0 / 0;2681;2023-09-21 21:21:00:729
2.4861;-14.869;0.3422;-6.768;-6.7288;2.2558;8.9464;-6.5367;0.5247;-0.0362;-0.4193;-1.5707;0.0;39.11;33.86;-14.27;172.09;43.35;66.5;5.0;972.58;0.0;;;;NaN;;;;;0 / 0;2686;2023-09-21 21:21:00:734
2.4861;-14.869;0.3422;-6.768;-6.7288;2.2558;8.9464;-6.5367;0.5247;-0.0362;-0.4193;-1.5707;0.0;39.11;33.86;-14.27;172.09;43.35;66.5;5.0;972.58;0.0;;;;NaN;;;;;0 / 0;2690;2023-09-21 21:21:00:738
-1.1342;-12.0407;5.3623;-6.5246;-6.9474;2.3092;7.2078;-6.9382;1.9236;0.017;-0.7308;-2.7515;0.0;39.11;33.86;-14.27;172.09;43.35;66.5;5.0;972.56;0.0;;;;NaN;;;;;0 / 0;2696;2023-09-21 21:21:00:744
-1.1342;-12.0407;5.3623;-6.5246;-6.9474;2.3092;7.2078;-6.9382;1.9236;0.017;-0.7308;-2.7515;0.0;39.73;32.91;-11.55;198.0;45.11;70.51;5.0;972.56;0.0;;;;NaN;;;;;0 / 0;2701;2023-09-21 21:21:00:749
-5.6806;-8.7649;3.5151;-6.5246;-6.9474;2.3092;7.2078;-6.9382;1.9236;0.1452;-0.7284;-3.1797;0.0;39.73;32.91;-11.55;198.0;45.11;70.51;5.0;972.56;0.0;;;;NaN;;;;;0 / 0;2706;2023-09-21 21:21:00:754
-5.6806;-8.7649;3.5151;-6.1758;-7.2327;2.3911;1.8213;-2.5744;1.5225;0.1452;-0.7284;-3.1797;0.0;39.86;32.89;-10.54;198.0;45.11;70.51;5.0;972.56;0.0;;;;NaN;;;;;0 / 0;2711;2023-09-21 21:21:00:759
-5.6806;-8.7649;3.5151;-6.1758;-7.2327;2.3911;1.8213;-2.5744;1.5225;0.1684;-1.0039;-3.3862;0.0;39.86;32.89;-10.54;198.0;45.11;70.51;5.0;972.56;0.0;;;;NaN;;;;;0 / 0;2716;2023-09-21 21:21:00:764
-8.6692;-6.0467;1.4189;-6.1758;-7.2327;2.3911;1.8213;-2.5744;1.5225;0.1684;-1.0039;-3.3862;0.0;39.86;32.89;-10.54;198.0;45.11;70.51;5.0;972.56;0.0;;;;NaN;;;;;0 / 0;2721;2023-09-21 21:21:00:769
-8.6692;-6.0467;1.4189;-5.7791;-7.5187;2.4985;-2.499;0.7781;-0.7582;0.1684;-1.0039;-3.3862;0.0;39.86;32.89;-10.54;198.0;45.11;70.51;5.0;972.56;0.0;;;;NaN;;;;;0 / 0;2725;2023-09-21 21:21:00:773
-11.2558;-5.7117;1.1342;-5.7791;-7.5187;2.4985;-2.499;0.7781;-0.7582;0.0848;-1.5995;-3.6727;0.0;39.86;33.6;-8.85;198.0;45.11;70.51;5.0;972.56;0.0;;;;NaN;;;;;0 / 0;2731;2023-09-21 21:21:00:779
-11.2558;-5.7117;1.1342;-5.3222;-7.8015;2.6421;-5.6702;2.0113;-1.4604;0.0848;-1.5995;-3.6727;0.0;39.86;33.6;-8.85;198.0;45.11;70.51;5.0;972.56;0.0;;;;NaN;;;;;0 / 0;2735;2023-09-21 21:21:00:783
-11.2558;-5.7117;1.1342;-5.3222;-7.8015;2.6421;-5.6702;2.0113;-1.4604;-0.0777;-2.3319;-3.6232;0.0;39.86;33.6;-8.85;198.0;45.11;70.51;5.0;972.56;0.0;;;;NaN;;;;;0 / 0;2741;2023-09-21 21:21:00:789
-13.663;-5.7787;1.5458;-5.3222;-7.8015;2.6421;-5.6702;2.0113;-1.4604;-0.0777;-2.3319;-3.6232;0.0;39.86;33.6;-8.85;198.0;45.11;70.51;5.0;972.56;0.0;;;;NaN;;;;;0 / 0;2745;2023-09-21 21:21:00:793
-13.663;-5.7787;1.5458;-4.8569;-8.0442;2.8055;-8.8999;2.2104;-1.2721;-0.2714;-2.8499;-3.231;0.0;38.83;35.14;-8.36;227.23;52.71;63.6;5.0;972.56;0.0;;;;NaN;;;;;0 / 0;2751;2023-09-21 21:21:00:799
-11.8253;-4.8885;0.6437;-4.8569;-8.0442;2.8055;-8.8999;2.2104;-1.2721;-0.2714;-2.8499;-3.231;0.0;38.83;35.14;-8.36;227.23;52.71;63.6;5.0;972.56;0.0;;;;NaN;;;;;0 / 0;2756;2023-09-21 21:21:00:804
-11.8253;-4.8885;0.6437;-4.8569;-8.0442;2.8055;-8.8999;2.2104;-1.2721;-0.6214;-3.2848;-3.0673;0.0;38.33;36.45;-8.4;227.23;52.71;63.6;5.0;972.56;0.0;;;;NaN;;;;;0 / 0;2760;2023-09-21 21:21:00:808
-11.8253;-4.8885;0.6437;-4.3901;-8.2607;2.9424;-6.5019;3.4998;-2.3756;-0.6214;-3.2848;-3.0673;0.0;38.33;36.45;-8.4;227.23;52.71;63.6;5.0;972.56;0.0;;;;NaN;;;;;0 / 0;2766;2023-09-21 21:21:00:814
-10.3681;-4.7713;0.8447;-4.3901;-8.2607;2.9424;-6.5019;3.4998;-2.3756;-0.6214;-3.2848;-3.0673;0.0;38.33;36.45;-8.4;227.23;52.71;63.6;5.0;972.56;0.0;;;;NaN;;;;;0 / 0;2770;2023-09-21 21:21:00:818
-10.3681;-4.7713;0.8447;-4.3901;-8.2607;2.9424;-6.5019;3.4998;-2.3756;-1.2103;-3.7143;-2.9292;0.0;38.33;36.45;-8.4;227.23;52.71;63.6;5.0;972.56;0.0;;;;NaN;;;;;0 / 0;2776;2023-09-21 21:21:00:824
-11.4162;-7.7456;3.5294;-3.9128;-8.4751;3.0055;-8.2536;1.5983;-0.5918;-1.2103;-3.7143;-2.9292;0.0;37.16;39.15;-9.24;227.23;52.71;63.6;5.0;972.56;0.0;;;;NaN;;;;;0 / 0;2781;2023-09-21 21:21:00:829
-11.4162;-7.7456;3.5294;-3.9128;-8.4751;3.0055;-8.2536;1.5983;-0.5918;-1.6751;-3.718;-2.5798;0.0;37.16;39.15;-9.24;227.23;52.71;63.6;5.0;972.56;0.0;;;;NaN;;;;;0 / 0;2785;2023-09-21 21:21:00:833
-11.4162;-7.7456;3.5294;-3.9128;-8.4751;3.0055;-8.2536;1.5983;-0.5918;-1.6751;-3.718;-2.5798;0.0;37.16;39.15;-9.24;227.23;52.71;63.6;5.0;972.56;0.0;;;;NaN;;;;;0 / 0;2790;2023-09-21 21:21:00:838
-13.3232;-11.0166;7.2239;-3.4873;-8.668;2.979;-9.2895;-1.5567;3.2884;-1.9665;-3.429;-2.118;0.0;37.16;39.15;-9.24;227.23;52.71;63.6;5.0;972.56;0.0;;;;NaN;;;;;0 / 0;2796;2023-09-21 21:21:00:844
-13.3232;-11.0166;7.2239;-3.4873;-8.668;2.979;-9.2895;-1.5567;3.2884;-1.9665;-3.429;-2.118;0.0;35.46;42.08;-9.98;237.55;62.12;49.49;5.0;972.56;0.0;;;;NaN;;;;;0 / 0;2800;2023-09-21 21:21:00:848
-12.4283;-11.8349;10.1862;-3.4873;-8.668;2.979;-9.2895;-1.5567;3.2884;-2.0692;-3.1224;-1.4198;0.0;35.46;42.08;-9.98;237.55;62.12;49.49;5.0;972.56;0.0;;;;NaN;;;;;0 / 0;2806;2023-09-21 21:21:00:854
-12.4283;-11.8349;10.1862;-3.1762;-8.8172;2.8878;-9.5126;-3.1149;6.4918;-2.0692;-3.1224;-1.4198;0.0;35.46;42.08;-9.98;237.55;62.12;49.49;5.0;972.56;0.0;;;;NaN;;;;;0 / 0;2811;2023-09-21 21:21:00:859
-12.4283;-11.8349;10.1862;-3.1762;-8.8172;2.8878;-9.5126;-3.1149;6.4918;-2.0692;-3.1224;-1.4198;0.0;35.46;42.08;-9.98;237.55;62.12;49.49;5.0;972.56;0.0;;;;NaN;;;;;0 / 0;2815;2023-09-21 21:21:00:863
-12.0766;-11.2941;12.6963;-3.1762;-8.8172;2.8878;-9.5126;-3.1149;6.4918;-1.5896;-3.0307;-0.7821;0.0;33.98;44.42;-10.99;237.55;62.12;49.49;5.0;972.56;0.0;;;;NaN;;;;;0 / 0;2821;2023-09-21 21:21:00:869
-12.0766;-11.2941;12.6963;-2.9688;-8.9053;2.8377;-9.1661;-2.5423;9.6471;-1.5896;-3.0307;-0.7821;0.0;33.98;44.42;-10.99;237.55;62.12;49.49;5.0;972.56;0.0;;;;NaN;;;;;0 / 0;2825;2023-09-21 21:21:00:873
-11.8947;-9.789;13.9765;-2.9688;-8.9053;2.8377;-9.1661;-2.5423;9.6471;-0.8725;-3.1584;-0.3667;0.0;33.98;44.42;-10.99;237.55;62.12;49.49;5.0;972.56;0.0;;;;NaN;;;;;0 / 0;2831;2023-09-21 21:21:00:879
-11.8947;-9.789;13.9765;-2.9688;-8.9053;2.8377;-9.1661;-2.5423;9.6471;-0.8725;-3.1584;-0.3667;0.0;33.98;44.42;-10.99;237.55;62.12;49.49;5.0;972.56;0.0;;;;NaN;;;;;0 / 0;2835;2023-09-21 21:21:00:883
-11.8947;-9.789;13.9765;-2.8262;-8.9206;2.9335;-9.0682;-0.6567;11.1087;0.0805;-3.8413;0.0115;0.0;32.7;46.48;-11.81;238.18;65.46;43.93;5.0;972.56;0.0;;;;NaN;;;;;0 / 0;2841;2023-09-21 21:21:00:889
-12.5264;-7.0516;15.0293;-2.8262;-8.9206;2.9335;-9.0682;-0.6567;11.1087;0.0805;-3.8413;0.0115;0.0;32.7;46.48;-11.81;238.18;65.46;43.93;5.0;972.56;0.0;;;;NaN;;;;;0 / 0;2846;2023-09-21 21:21:00:894
-12.5264;-7.0516;15.0293;-2.6996;-8.8641;3.2109;-9.8196;2.0133;11.9179;0.8154;-4.6361;0.4122;0.0;32.7;46.48;-11.81;238.18;65.46;43.93;5.0;972.56;0.0;;;;NaN;;;;;0 / 0;2850;2023-09-21 21:21:00:898
-12.1077;-5.9868;16.5847;-2.6996;-8.8641;3.2109;-9.8196;2.0133;11.9179;0.8154;-4.6361;0.4122;0.0;32.7;46.48;-11.81;238.18;65.46;43.93;5.0;972.58;0.0;;;;NaN;;;;;0 / 0;2856;2023-09-21 21:21:00:904
-12.1077;-5.9868;16.5847;-2.6996;-8.8641;3.2109;-9.8196;2.0133;11.9179;1.8715;-5.0753;1.1336;0.0;31.33;47.93;-12.28;238.18;65.46;43.93;5.0;972.58;0.0;;;;NaN;;;;;0 / 0;2861;2023-09-21 21:21:00:909
-12.1077;-5.9868;16.5847;-2.618;-8.7109;3.6657;-8.7024;2.4933;13.2308;1.8715;-5.0753;1.1336;0.0;31.33;47.93;-12.28;238.18;65.46;43.93;5.0;972.58;0.0;;;;NaN;;;;;0 / 0;2866;2023-09-21 21:21:00:914
-8.0614;-7.8174;16.8885;-2.618;-8.7109;3.6657;-8.7024;2.4933;13.2308;1.8715;-5.0753;1.1336;0.0;30.96;48.45;-13.18;238.18;65.46;43.93;5.0;972.58;0.0;;;;NaN;;;;;0 / 0;2870;2023-09-21 21:21:00:918
-8.0614;-7.8174;16.8885;-2.618;-8.7109;3.6657;-8.7024;2.4933;13.2308;3.056;-4.0991;1.5789;0.0;30.96;48.45;-13.18;238.18;65.46;43.93;5.0;972.58;0.0;;;;NaN;;;;;0 / 0;2876;2023-09-21 21:21:00:924
-8.0614;-7.8174;16.8885;-2.6052;-8.4568;4.2268;-1.5848;-1.0887;10.085;3.056;-4.0991;1.5789;0.0;30.96;48.45;-13.18;238.18;65.46;43.93;5.0;972.58;0.0;;;;NaN;;;;;0 / 0;2881;2023-09-21 21:21:00:929
0.1675;-12.7107;10.4782;-2.6052;-8.4568;4.2268;-1.5848;-1.0887;10.085;3.629;-1.8951;1.3157;0.0;30.96;48.45;-13.18;238.18;65.46;43.93;5.0;972.58;0.0;;;;NaN;;;;;0 / 0;2885;2023-09-21 21:21:00:933
0.1675;-12.7107;10.4782;-2.6052;-8.4568;4.2268;-1.5848;-1.0887;10.085;3.629;-1.8951;1.3157;0.0;30.15;48.39;-14.44;271.42;59.58;31.65;5.0;972.58;0.0;;;;NaN;;;;;0 / 0;2891;2023-09-21 21:21:00:939
2.613;-15.1801;2.8427;-2.6983;-8.181;4.6862;4.8684;-6.1665;2.7264;3.7933;0.9692;0.7445;0.0;30.15;48.39;-14.44;271.42;59.58;31.65;5.0;972.58;0.0;;;;NaN;;;;;0 / 0;2895;2023-09-21 21:21:00:943
2.613;-15.1801;2.8427;-2.6983;-8.181;4.6862;4.8684;-6.1665;2.7264;3.7933;0.9692;0.7445;0.0;30.15;48.39;-14.44;271.42;59.58;31.65;5.0;972.58;0.0;;;;NaN;;;;;0 / 0;2900;2023-09-21 21:21:00:948
3.3763;-15.7735;-10.2939;-2.6983;-8.181;4.6862;4.8684;-6.1665;2.7264;3.0859;4.7254;0.2124;0.0;30.15;48.39;-14.44;271.42;59.58;31.65;5.0;972.58;0.0;;;;NaN;;;;;0 / 0;2906;2023-09-21 21:21:00:954
3.3763;-15.7735;-10.2939;-3.0033;-7.9746;4.8535;6.2118;-7.884;-11.3326;3.0859;4.7254;0.2124;0.0;29.53;48.02;-16.93;271.42;59.58;31.65;5.0;972.58;0.0;;;;NaN;;;;;0 / 0;2910;2023-09-21 21:21:00:958
3.3763;-15.7735;-10.2939;-3.0033;-7.9746;4.8535;6.2118;-7.884;-11.3326;1.852;7.1573;-0.093;0.0;29.53;48.02;-16.93;271.42;59.58;31.65;5.0;972.58;0.0;;;;NaN;;;;;0 / 0;2916;2023-09-21 21:21:00:964
6.5013;-11.7177;-16.8263;-3.0033;-7.9746;4.8535;6.2118;-7.884;-11.3326;1.852;7.1573;-0.093;0.0;29.53;48.02;-16.93;271.42;59.58;31.65;5.0;972.58;0.0;;;;NaN;;;;;0 / 0;2921;2023-09-21 21:21:00:969
6.5013;-11.7177;-16.8263;-3.4624;-7.9371;4.6026;9.7846;-4.2368;-20.9297;0.5063;7.9044;-0.5597;0.0;29.53;48.02;-16.93;271.42;59.58;31.65;5.0;972.58;0.0;;;;NaN;;;;;0 / 0;2925;2023-09-21 21:21:00:973
10.6528;-10.9161;-19.3412;-3.4624;-7.9371;4.6026;9.7846;-4.2368;-20.9297;0.5063;7.9044;-0.5597;0.0;29.63;46.52;-18.6;273.27;54.03;36.95;5.0;972.58;0.0;;;;NaN;;;;;0 / 0;2931;2023-09-21 21:21:00:979
10.6528;-10.9161;-19.3412;-3.7086;-8.1157;4.0684;14.6229;-2.8909;-23.7101;-1.6257;6.0333;-1.6635;0.0;29.63;46.52;-18.6;273.27;54.03;36.95;5.0;972.59;0.0;;;;NaN;;;;;0 / 0;2936;2023-09-21 21:21:00:984
10.6528;-10.9161;-19.3412;-3.7086;-8.1157;4.0684;14.6229;-2.8909;-23.7101;-1.6257;6.0333;-1.6635;0.0;29.63;46.52;-18.6;273.27;54.03;36.95;5.0;972.59;0.0;;;;NaN;;;;;0 / 0;2941;2023-09-21 21:21:00:989
7.5015;-10.751;-12.0598;-3.7086;-8.1157;4.0684;14.6229;-2.8909;-23.7101;-2.9103;3.8146;-2.3685;0.0;29.63;46.52;-18.6;273.27;54.03;36.95;5.0;972.59;0.0;;;;NaN;;;;;0 / 0;2946;2023-09-21 21:21:00:994
7.5015;-10.751;-12.0598;-3.5999;-8.4385;3.4646;10.5261;-2.364;-14.1901;-2.9103;3.8146;-2.3685;0.0;30.21;45.6;-18.69;273.27;54.03;36.95;5.0;972.59;0.0;;;;NaN;;;;;0 / 0;2951;2023-09-21 21:21:00:999
7.5015;-10.751;-12.0598;-3.5999;-8.4385;3.4646;10.5261;-2.364;-14.1901;-2.9103;3.8146;-2.3685;0.0;30.21;45.6;-18.69;273.27;54.03;36.95;5.0;972.59;0.0;;;;NaN;;;;;0 / 0;2955;2023-09-21 21:21:01:003
4.6014;-8.5615;-3.2877;-3.5999;-8.4385;3.4646;10.5261;-2.364;-14.1901;-3.2945;2.4457;-2.3911;0.0;30.21;45.6;-18.69;273.27;54.03;36.95;5.0;972.59;0.0;;;;NaN;;;;;0 / 0;2961;2023-09-21 21:21:01:009
4.6014;-8.5615;-3.2877;-3.3858;-8.7258;2.9268;7.8941;0.4344;-6.0971;-3.2945;2.4457;-2.3911;0.0;30.21;45.6;-18.69;273.27;54.03;36.95;5.0;972.59;0.0;;;;NaN;;;;;0 / 0;2965;2023-09-21 21:21:01:013
4.6014;-8.5615;-3.2877;-3.3858;-8.7258;2.9268;7.8941;0.4344;-6.0971;-3.3068;1.5752;-2.2671;0.0;31.28;45.3;-17.55;211.63;62.85;49.16;5.0;972.59;0.0;;;;NaN;;;;;0 / 0;2971;2023-09-21 21:21:01:019
4.1946;-4.9603;-3.984;-3.3858;-8.7258;2.9268;7.8941;0.4344;-6.0971;-3.3068;1.5752;-2.2671;0.0;31.28;45.3;-17.55;211.63;62.85;49.16;5.0;972.59;0.0;;;;NaN;;;;;0 / 0;2975;2023-09-21 21:21:01:023
4.1946;-4.9603;-3.984;-3.1294;-8.9702;2.4317;7.2017;4.1687;-6.3684;-3.3495;0.9429;-2.2005;0.0;31.28;45.3;-17.55;211.63;62.85;49.16;5.0;972.59;0.0;;;;NaN;;;;;0 / 0;2980;2023-09-21 21:21:01:028
4.1946;-4.9603;-3.984;-3.1294;-8.9702;2.4317;7.2017;4.1687;-6.3684;-3.3495;0.9429;-2.2005;0.0;31.28;45.3;-17.55;211.63;62.85;49.16;5.0;972.59;0.0;;;;NaN;;;;;0 / 0;2986;2023-09-21 21:21:01:034
2.6106;-3.0915;-3.2925;-3.1294;-8.9702;2.4317;7.2017;4.1687;-6.3684;-3.3996;0.6503;-2.1003;0.0;31.28;45.3;-17.55;211.63;62.85;49.16;5.0;972.59;0.0;;;;NaN;;;;;0 / 0;2990;2023-09-21 21:21:01:038
2.6106;-3.0915;-3.2925;-2.8675;-9.1743;1.9442;4.964;6.3553;-4.9534;-3.3996;0.6503;-2.1003;0.0;32.06;45.98;-14.76;211.63;62.85;49.16;5.0;972.59;0.0;;;;NaN;;;;;0 / 0;2997;2023-09-21 21:21:01:045
2.6106;-3.0915;-3.2925;-2.8675;-9.1743;1.9442;4.964;6.3553;-4.9534;-3.3996;0.6503;-2.1003;0.0;32.06;45.98;-14.76;211.63;62.85;49.16;5.0;972.59;0.0;;;;NaN;;;;;0 / 0;3000;2023-09-21 21:21:01:048
0.9356;-1.9047;-2.2205;-2.8675;-9.1743;1.9442;4.964;6.3553;-4.9534;-3.4283;0.9521;-1.9488;0.0;32.29;46.89;-13.16;211.63;62.85;49.16;5.0;972.59;0.0;;;;NaN;;;;;0 / 0;3006;2023-09-21 21:21:01:054
0.9356;-1.9047;-2.2205;-2.8675;-9.1743;1.9442;4.964;6.3553;-4.9534;-3.4283;0.9521;-1.9488;0.0;32.29;46.89;-13.16;211.63;62.85;49.16;5.0;972.59;0.0;;;;NaN;;;;;0 / 0;3010;2023-09-21 21:21:01:058
0.9356;-1.9047;-2.2205;-2.6339;-9.337;1.4328;3.3586;7.3114;-3.3708;-3.4668;1.4084;-1.8792;0.0;32.29;46.89;-13.16;211.63;62.85;49.16;5.0;972.59;0.0;;;;NaN;;;;;0 / 0;3016;2023-09-21 21:21:01:064
0.9356;-1.9047;-2.2205;-2.6339;-9.337;1.4328;3.3586;7.3114;-3.3708;-3.4668;1.4084;-1.8792;0.0;32.29;46.89;-13.16;211.63;62.85;49.16;5.0;972.59;0.0;;;;NaN;;;;;0 / 0;3020;2023-09-21 21:21:01:068
0.5647;-2.3234;-1.5553;-2.5584;-9.3835;1.2553;3.1368;7.2301;-3.1015;-3.4998;1.5025;-1.8712;0.0;31.95;48.83;-9.83;196.33;73.11;63.86;5.0;972.58;0.0;;;;NaN;;;;;0 / 0;3027;2023-09-21 21:21:01:075
0.5647;-2.3234;-1.5553;-2.5584;-9.3835;1.2553;3.1368;7.2301;-3.1015;-3.4998;1.5025;-1.8712;0.0;31.95;48.83;-9.83;196.33;73.11;63.86;5.0;972.58;0.0;;;;NaN;;;;;0 / 0;3031;2023-09-21 21:21:01:079
0.5647;-2.3234;-1.5553;-2.5584;-9.3835;1.2553;3.1368;7.2301;-3.1015;-3.4998;1.5025;-1.8712;0.0;31.95;48.83;-9.83;196.33;73.11;63.86;5.0;972.58;0.0;;;;NaN;;;;;0 / 0;3036;2023-09-21 21:21:01:084
-3.7687;-5.5083;0.1866;-2.1749;-9.5559;0.3536;0.2143;5.1269;-0.8713;-3.5957;1.4872;-1.5725;0.0;31.35;50.27;-7.11;196.33;73.11;63.86;5.0;972.58;0.0;;;;NaN;;;;;0 / 0;3040;2023-09-21 21:21:01:088
-3.7687;-5.5083;0.1866;-2.1749;-9.5559;0.3536;0.2143;5.1269;-0.8713;-3.5957;1.4872;-1.5725;0.0;31.35;50.27;-7.11;196.33;73.11;63.86;5.0;972.58;0.0;;;;NaN;;;;;0 / 0;3045;2023-09-21 21:21:01:093
-10.8562;-11.6746;3.2901;-2.1749;-9.5559;0.3536;0.2143;5.1269;-0.8713;-3.3617;1.7658;-0.4485;0.0;31.35;50.27;-7.11;196.33;73.11;63.86;5.0;972.58;0.0;;;;NaN;;;;;0 / 0;3051;2023-09-21 21:21:01:099
-10.8562;-11.6746;3.2901;-2.0766;-9.5828;-0.1666;-6.4739;-0.1982;2.4576;-3.3617;1.7658;-0.4485;0.0;31.35;50.27;-7.11;196.33;73.11;63.86;5.0;972.58;0.0;;;;NaN;;;;;0 / 0;3057;2023-09-21 21:21:01:105
-10.8562;-11.6746;3.2901;-2.0766;-9.5828;-0.1666;-6.4739;-0.1982;2.4576;-3.3617;1.7658;-0.4485;0.0;31.35;50.27;-7.11;196.33;73.11;63.86;5.0;972.58;0.0;;;;NaN;;;;;0 / 0;3062;2023-09-21 21:21:01:110
-19.4991;-19.8796;4.5846;-2.0766;-9.5828;-0.1666;-6.4739;-0.1982;2.4576;-3.0099;2.4115;1.378;0.0;30.19;51.53;-3.22;163.28;77.74;94.59;5.0;972.58;0.0;;;;NaN;;;;;0 / 0;3065;2023-09-21 21:21:01:113
-19.4991;-19.8796;4.5846;-2.3423;-9.5018;-0.6324;-16.3061;-9.7029;5.1623;-3.0099;2.4115;1.378;0.0;30.19;51.53;-3.22;163.28;77.74;94.59;5.0;972.58;0.0;;;;NaN;;;;;0 / 0;3072;2023-09-21 21:21:01:120
-3.1944;-27.5988;12.8351;-2.3423;-9.5018;-0.6324;-16.3061;-9.7029;5.1623;-2.5047;0.7139;3.1996;0.0;30.19;51.53;-3.22;163.28;77.74;94.59;5.0;972.58;0.0;;;;NaN;;;;;0 / 0;3075;2023-09-21 21:21:01:123
-3.1944;-27.5988;12.8351;-2.6361;-9.4006;-0.9215;2.6544;-17.1203;13.9521;-2.5047;0.7139;3.1996;0.0;29.7;52.71;0.0;163.28;77.74;94.59;5.0;972.58;0.0;;;;NaN;;;;;0 / 0;3081;2023-09-21 21:21:01:129
-3.1944;-27.5988;12.8351;-2.6361;-9.4006;-0.9215;2.6544;-17.1203;13.9521;-2.5047;0.7139;3.1996;0.0;29.7;52.71;0.0;163.28;77.74;94.59;5.0;972.58;0.0;;;;NaN;;;;;0 / 0;3085;2023-09-21 21:21:01:133
